SessionID,SessionDate,SessionDuration,SessionFrequency,RecordID,Timestamp,timeIntervalSince1970,GyroX,GyroY,GyroZ,AccX,AccY,AccZ,MagX,MagY,MagZ,WatchTimestamp,WatchtImeIntervalSince1970,WatchGyroX,WatchGyroY,WatchGyroZ,WatchAccX,WatchAccY,WatchAccZ
3,16:09.3,00:26,60,0,16:09.4,1661948169,-0.05777728,-0.147877878,-0.121021763,0.020111084,-0.342468262,-0.959594727,29.52000427,-72.90626526,-76.07026672,,,,,,,,
3,16:09.3,00:26,60,0,16:09.4,1661948169,-0.098621649,-0.18780399,-0.128348918,0.029052734,-0.348770142,-0.961135864,29.37261963,-73.07435608,-76.05581665,,,,,,,,
3,16:09.3,00:26,60,0,16:09.4,1661948169,-0.093377618,-0.172611188,-0.145495415,0.033126831,-0.351455688,-0.93132019,29.37261963,-73.07435608,-76.05581665,,,,,,,,
3,16:09.3,00:26,60,0,16:09.5,1661948169,-0.076645776,-0.191631485,-0.166488581,0.035186768,-0.351531982,-0.914398193,29.2989502,-73.20837402,-75.99674988,,,,,,,,
3,16:09.3,00:26,60,0,16:09.5,1661948169,-0.044775727,-0.212637168,-0.173636239,0.042144775,-0.333862305,-0.926315308,29.06607056,-73.00276184,-75.71936035,,,,,,,,
3,16:09.3,00:26,60,0,16:09.5,1661948169,-0.03247938,-0.318175312,-0.19134919,0.040756226,-0.335205078,-0.922607422,28.88337708,-73.32666016,-75.50613403,,,,,,,,
3,16:09.3,00:26,60,0,16:09.5,1661948170,-0.056301622,-0.389021789,-0.22390953,0.032180786,-0.322814941,-0.907150269,28.48980713,-73.1247406,-75.30281067,,,,,,,,
3,16:09.3,00:26,60,0,16:09.5,1661948170,-0.078498804,-0.404880114,-0.267731313,0.025756836,-0.308288574,-0.892837524,28.08540344,-73.18537903,-75.2263031,,,,,,,,
3,16:09.3,00:26,60,0,16:09.5,1661948170,-0.189217329,-0.466868651,-0.255968663,0.021713257,-0.298614502,-0.873519897,28.08540344,-73.18537903,-75.2263031,,,,,,,,
3,16:09.3,00:26,60,0,16:09.6,1661948170,-0.227423038,-0.234084669,-0.278526969,0.000137329,-0.32611084,-0.885467529,27.89454651,-73.49227905,-74.80677795,,,,,,,,
3,16:09.3,00:26,60,0,16:09.6,1661948170,-0.290165782,-0.106979181,-0.208524714,0.022064209,-0.330780029,-0.798934937,27.59489441,-73.18702698,-74.74006653,,,,,,,,
3,16:09.3,00:26,60,0,16:09.6,1661948170,-0.333491684,0.016257533,-0.179995069,-0.004898071,-0.369766235,-0.870925903,27.4727478,-73.31404114,-74.83076477,,,,,,,,
3,16:09.3,00:26,60,0,16:09.6,1661948170,-0.214390859,0.069152706,-0.103362342,0.019760132,-0.321304321,-0.901809692,27.61616516,-73.06272888,-74.54748535,,,,,,,,
3,16:09.3,00:26,60,0,16:09.6,1661948170,-0.172122764,0.126140891,-0.050131611,-0.020812988,-0.392822266,-0.94152832,27.47831726,-73.14593506,-74.67752075,,,,,,,,
3,16:09.3,00:26,60,0,16:09.6,1661948170,-0.149622782,0.093819437,-0.022547387,0.02166748,-0.359329224,-0.969451904,27.47831726,-73.14593506,-74.67752075,,,,,,,,
3,16:09.3,00:26,60,0,16:09.7,1661948170,-0.144641339,0.074326695,-0.018467424,0.026107788,-0.359176636,-1.007202148,27.66188049,-72.53636169,-74.28672791,,,,,,,,
3,16:09.3,00:26,60,0,16:09.7,1661948170,-0.144875697,0.071047279,-0.031569378,0.026473999,-0.359710693,-1.012207031,27.64128113,-72.55201721,-74.48751831,,,,,,,,
3,16:09.3,00:26,60,0,16:09.7,1661948170,-0.105733621,0.079735842,-0.023630495,0.030441284,-0.355316162,-1.003036499,27.53007507,-72.2444458,-75.20727539,,,,,,,,
3,16:09.3,00:26,60,0,16:09.7,1661948170,-0.075112062,0.072354358,-0.007269365,0.025985718,-0.367706299,-0.992797852,27.64282227,-72.54957581,-75.14472961,,,,,,,,
3,16:09.3,00:26,60,0,16:09.7,1661948170,-0.081094054,0.054668306,-0.007035273,0.025695801,-0.367782593,-0.990753174,27.84555054,-72.47416687,-74.78903198,,,,,,,,
3,16:09.3,00:26,60,0,16:09.7,1661948170,-0.089800727,0.026314961,-0.020845893,0.025619507,-0.358474731,-0.987792969,27.84555054,-72.47416687,-74.78903198,,,,,,,,
3,16:09.3,00:26,60,0,16:09.8,1661948170,-0.097445064,0.000963798,-0.017465277,0.024536133,-0.35295105,-0.986343384,27.63380432,-72.1933136,-74.95454407,,,,,,,,
3,16:09.3,00:26,60,0,16:09.8,1661948170,-0.093629553,-0.017317205,0.006650712,0.025726318,-0.359283447,-0.984207153,27.85102844,-72.38946533,-75.1526947,,,,,,,,
3,16:09.3,00:26,60,0,16:09.8,1661948170,-0.068959893,-0.020121514,0.019149992,0.024810791,-0.361053467,-0.985687256,27.62640381,-72.26655579,-74.93771362,,,,,,,,
3,16:09.3,00:26,60,0,16:09.8,1661948170,-0.048570732,0.009219065,0.00756178,0.017791748,-0.349380493,-0.981842041,27.80734253,-72.5317688,-74.67045593,,,,,,,,
3,16:09.3,00:26,60,0,16:09.8,1661948170,-0.028644162,0.038479216,0.00285624,0.011566162,-0.330322266,-0.969787598,27.81404114,-72.23881531,-74.62818909,,,,,,,,
3,16:09.3,00:26,60,0,16:09.8,1661948170,-0.020560669,0.025599636,0.012809272,0.011398315,-0.326293945,-0.964797974,27.81404114,-72.23881531,-74.62818909,,,,,,,,
3,16:09.3,00:26,60,0,16:09.9,1661948170,-0.02621456,-0.035607795,0.023176692,0.015426636,-0.327072144,-0.981521606,27.88798523,-72.48332214,-74.51080322,,,,,,,,
3,16:09.3,00:26,60,0,16:09.9,1661948170,-0.037817953,-0.067042417,0.027455593,0.015625,-0.327636719,-0.995803833,27.77433777,-72.21395874,-74.76898193,,,,,,,,
3,16:09.3,00:26,60,0,16:09.9,1661948170,-0.033605098,-0.064589113,0.036399021,0.011306763,-0.326171875,-0.986190796,27.81307983,-72.1786499,-74.98280334,,,,,,,,
3,16:09.3,00:26,60,0,16:09.9,1661948170,-0.012363725,-0.039071769,0.038520228,0.005844116,-0.330108643,-0.968551636,27.67616272,-72.02250671,-75.02801514,,,,,,,,
3,16:09.3,00:26,60,0,16:09.9,1661948170,0.010491523,-0.015370701,0.029010613,0.004974365,-0.324417114,-0.958999634,27.77476501,-72.11795044,-74.88116455,,,,,,,,
3,16:09.3,00:26,60,0,16:09.9,1661948170,0.019439478,-0.003230681,0.01925785,0.005355835,-0.316665649,-0.95451355,27.77476501,-72.11795044,-74.88116455,,,,,,,,
3,16:09.3,00:26,60,0,16:10.0,1661948170,0.019005649,-0.002651443,0.012942164,0.007461548,-0.314941406,-0.951446533,27.86904907,-72.09590149,-74.70462036,,,,,,,,
3,16:09.3,00:26,60,0,16:10.0,1661948170,0.004018444,-0.000258593,0.006902914,0.008956909,-0.318054199,-0.949386597,27.75027466,-71.98072815,-74.89332581,,,,,,,,
3,16:09.3,00:26,60,0,16:10.0,1661948170,-0.003114301,0.005978264,0.007453389,0.008773804,-0.318252563,-0.946258545,27.68009949,-72.05451965,-74.94078064,,,,,,,,
3,16:09.3,00:26,60,0,16:10.0,1661948170,-0.004488225,0.010459299,0.013865216,0.009216309,-0.31829834,-0.947723389,27.78543091,-72.29231262,-74.38642883,,,,,,,,
3,16:09.3,00:26,60,0,16:10.0,1661948170,-0.008542888,0.013969079,0.017395768,0.011444092,-0.317184448,-0.947433472,27.72970581,-72.09837341,-74.65635681,,,,,,,,
3,16:09.3,00:26,60,0,16:10.0,1661948170,-0.015828498,0.021006216,0.015545404,0.00982666,-0.313201904,-0.943252563,27.61172485,-72.04927063,-74.66461182,,,,,,,,
3,16:09.3,00:26,60,0,16:10.1,1661948170,-0.019807793,0.027792483,0.025278991,0.009017944,-0.308319092,-0.941879272,27.61172485,-72.04927063,-74.66461182,,,,,,,,
3,16:09.3,00:26,60,0,16:10.1,1661948170,-0.026172216,0.021554561,0.017783258,0.010864258,-0.31048584,-0.940063477,27.71217346,-71.86895752,-74.72871399,,,,,,,,
3,16:09.3,00:26,60,0,16:10.1,1661948170,-0.049969158,0.013228187,0.005363606,0.009979248,-0.311065674,-0.944519043,27.87294006,-72.03388977,-75.20799255,,,,,,,,
3,16:09.3,00:26,60,0,16:10.1,1661948170,-0.061788,0.003131078,0.00686776,0.008300781,-0.307846069,-0.946289063,27.8155365,-71.7828064,-74.96632385,,,,,,,,
3,16:09.3,00:26,60,0,16:10.1,1661948170,-0.057322945,-0.003552124,0.017233582,0.010528564,-0.314575195,-0.955032349,27.78779602,-71.85997009,-75.11195374,,,,,,,,
3,16:09.3,00:26,60,0,16:10.1,1661948170,-0.053234193,-0.008877647,0.013771739,0.015213013,-0.316940308,-0.962081909,27.809021,-71.80076599,-74.88604736,,,,,,,,
3,16:09.3,00:26,60,0,16:10.2,1661948170,-0.031477499,0.001470331,0.00513271,0.012298584,-0.309707642,-0.96446228,27.809021,-71.80076599,-74.88604736,,,,,,,,
3,16:09.3,00:26,60,0,16:10.2,1661948170,-0.018115621,0.02147653,0.002751578,0.010574341,-0.30519104,-0.959365845,27.89538574,-71.78321838,-74.70489502,,,,,,,,
3,16:09.3,00:26,60,0,16:10.2,1661948170,-0.017527595,0.021175593,0.002053031,0.012771606,-0.313171387,-0.956176758,27.77505493,-71.554245,-74.85002136,,,,,,,,
3,16:09.3,00:26,60,0,16:10.2,1661948170,-0.014711036,0.01832388,-0.004971589,0.014358521,-0.309341431,-0.956588745,27.91540527,-71.87753296,-74.81163025,,,,,,,,
3,16:09.3,00:26,60,0,16:10.2,1661948170,-0.019962523,0.010826549,-0.000535295,0.010848999,-0.307022095,-0.952026367,27.92330933,-71.81784058,-74.86094666,,,,,,,,
3,16:09.3,00:26,60,0,16:10.2,1661948170,-0.036352948,0.011630823,0.015759522,0.010925293,-0.311035156,-0.946243286,28.03927612,-71.68772888,-74.97335815,,,,,,,,
3,16:09.3,00:26,60,0,16:10.3,1661948170,-0.048344896,0.012212458,0.017472734,0.011245728,-0.311767578,-0.947601318,28.03927612,-71.68772888,-74.97335815,,,,,,,,
3,16:09.3,00:26,60,0,16:10.3,1661948170,-0.045925414,0.013004482,0.019573435,0.010360718,-0.306945801,-0.950866699,28.08502197,-71.68901062,-74.86631775,,,,,,,,
3,16:09.3,00:26,60,0,16:10.3,1661948170,-0.027067304,0.036596893,0.015048458,0.009246826,-0.304168701,-0.956497192,27.98313904,-71.65924072,-75.10435486,,,,,,,,
3,16:09.3,00:26,60,0,16:10.3,1661948170,-0.000275371,0.064890583,0.017132115,0.010635376,-0.304611206,-0.956619263,28.01237488,-71.5426178,-75.12229919,,,,,,,,
3,16:09.3,00:26,60,0,16:10.3,1661948170,-0.002378469,0.061984542,0.008115184,0.010223389,-0.303314209,-0.950042725,27.96611023,-71.35406494,-74.96885681,,,,,,,,
3,16:09.3,00:26,60,0,16:10.3,1661948170,-0.026244387,0.033903106,0.002022138,0.013198853,-0.302337646,-0.959609985,28.15264893,-71.57907104,-75.11108398,,,,,,,,
3,16:09.3,00:26,60,0,16:10.4,1661948170,-0.044851627,0.006253102,0.001839978,0.016555786,-0.307723999,-0.964355469,28.15264893,-71.57907104,-75.11108398,,,,,,,,
3,16:09.3,00:26,60,0,16:10.4,1661948170,-0.045353367,-0.015013571,0.005977998,0.022140503,-0.3125,-0.966537476,28.17881775,-71.71928406,-75.14785767,,,,,,,,
3,16:09.3,00:26,60,0,16:10.4,1661948170,-0.031117706,-0.017283117,0.003030145,0.024414063,-0.313934326,-0.966156006,28.0333252,-71.23094177,-75.0652771,,,,,,,,
3,16:09.3,00:26,60,0,16:10.4,1661948170,-0.019067701,-0.004346545,-0.003562511,0.020080566,-0.30960083,-0.964660645,28.17182922,-71.42913818,-75.15542603,,,,,,,,
3,16:09.3,00:26,60,0,16:10.4,1661948170,-0.016195482,0.000157925,-0.004334295,0.017684937,-0.304168701,-0.959716797,28.14080811,-71.35227966,-75.1366272,,,,,,,,
3,16:09.3,00:26,60,0,16:10.4,1661948170,-0.013667875,0.004430168,-0.007366037,0.017700195,-0.308380127,-0.962966919,28.0537262,-71.12345886,-74.88858032,,,,,,,,
3,16:09.3,00:26,60,0,16:10.5,1661948170,-0.012667858,-0.005503156,-0.006371879,0.019500732,-0.309158325,-0.964538574,28.0537262,-71.12345886,-74.88858032,,,,,,,,
3,16:09.3,00:26,60,0,16:10.5,1661948170,-0.010982876,-0.016478842,-0.007530354,0.019897461,-0.307159424,-0.965530396,28.26771545,-71.19837952,-74.80752563,,,,,,,,
3,16:09.3,00:26,60,0,16:10.5,1661948170,-0.008979114,-0.019459984,-0.006642456,0.019592285,-0.308166504,-0.966918945,28.27285767,-71.21072388,-74.85824585,,,,,,,,
3,16:09.3,00:26,60,0,16:10.5,1661948171,-0.00021252,-0.00779667,-0.002600843,0.016967773,-0.304611206,-0.958114624,28.09371948,-71.75666809,-75.17166138,,,,,,,,
3,16:09.3,00:26,60,0,16:10.5,1661948171,-0.002564358,0.00315558,-0.002927879,0.017181396,-0.303329468,-0.951690674,28.38829041,-71.54269409,-74.90989685,,,,,,,,
3,16:09.3,00:26,60,0,16:10.5,1661948171,-0.007255782,0.015557654,-0.004616856,0.018753052,-0.301727295,-0.948303223,28.18426514,-71.4377594,-74.93930054,,,,,,,,
3,16:09.3,00:26,60,0,16:10.6,1661948171,-0.004097007,0.035319908,0.002928678,0.016738892,-0.304763794,-0.946182251,28.18426514,-71.4377594,-74.93930054,,,,,,,,
3,16:09.3,00:26,60,0,16:10.6,1661948171,0.018124409,0.063635968,0.006683469,0.020095825,-0.306533813,-0.950881958,28.21330261,-71.55238342,-74.63883972,,,,,,,,
3,16:09.3,00:26,60,0,16:10.6,1661948171,0.042817771,0.086612124,0.003890612,0.023132324,-0.302825928,-0.95098877,28.19137573,-71.4480896,-74.95135498,,,,,,,,
3,16:09.3,00:26,60,0,16:10.6,1661948171,0.033038378,0.092183191,0.007966846,0.024841309,-0.297546387,-0.946746826,28.38960266,-71.23908997,-75.328125,,,,,,,,
3,16:09.3,00:26,60,0,16:10.6,1661948171,0.001982191,0.081038927,0.013942714,0.02885437,-0.30519104,-0.945663452,28.36923218,-71.47689819,-75.34283447,,,,,,,,
3,16:09.3,00:26,60,0,16:10.6,1661948171,-0.020998759,0.054306915,0.012482769,0.027542114,-0.308853149,-0.953155518,28.3536377,-71.45283508,-75.29542542,,,,,,,,
3,16:09.3,00:26,60,0,16:10.7,1661948171,-0.035122834,0.021705562,0.008420116,0.029296875,-0.304916382,-0.957351685,28.3536377,-71.45283508,-75.29542542,,,,,,,,
3,16:09.3,00:26,60,0,16:10.7,1661948171,-0.042339734,-0.006039517,0.007069894,0.029891968,-0.301330566,-0.964111328,28.50740051,-71.68257141,-74.91313171,,,,,,,,
3,16:09.3,00:26,60,0,16:10.7,1661948171,-0.03896471,-0.020592893,0.007559383,0.031936646,-0.300460815,-0.965240479,28.51293945,-71.35653687,-75.33399963,,,,,,,,
3,16:09.3,00:26,60,0,16:10.7,1661948171,-0.036908483,-0.026341859,0.003561445,0.030441284,-0.301132202,-0.964889526,28.53208923,-71.42625427,-75.20515442,,,,,,,,
3,16:09.3,00:26,60,0,16:10.7,1661948171,-0.041498175,-0.031091873,0.003033873,0.028045654,-0.303222656,-0.966094971,28.7487793,-71.70028687,-74.01846313,,,,,,,,
3,16:09.3,00:26,60,0,16:10.7,1661948171,-0.038365499,-0.016367788,0.000617587,0.025863647,-0.302200317,-0.967971802,28.56826782,-71.36334229,-74.98788452,,,,,,,,
3,16:09.3,00:26,60,0,16:10.8,1661948171,-0.016296948,0.000912932,-0.004487959,0.023696899,-0.299545288,-0.968139648,28.56826782,-71.36334229,-74.98788452,,,,,,,,
3,16:09.3,00:26,60,0,16:10.8,1661948171,0.016361929,0.0090148,-0.010034525,0.021484375,-0.295135498,-0.967590332,28.55432129,-71.30883789,-74.68486023,,,,,,,,
3,16:09.3,00:26,60,0,16:10.8,1661948171,0.021890652,0.014109694,-0.006689328,0.022186279,-0.292175293,-0.966949463,28.54206848,-71.05253601,-75.12406921,,,,,,,,
3,16:09.3,00:26,60,0,16:10.8,1661948171,0.021198762,0.016128636,-0.002909237,0.022750854,-0.294174194,-0.962768555,28.51837158,-71.34281921,-75.32043457,,,,,,,,
3,16:09.3,00:26,60,0,16:10.8,1661948171,0.018235197,0.014840998,-0.001346228,0.025772095,-0.298706055,-0.958068848,28.5369873,-71.10029602,-75.43678284,,,,,,,,
3,16:09.3,00:26,60,0,16:10.8,1661948171,0.014874554,0.022442192,-0.001057009,0.026535034,-0.29927063,-0.950866699,28.56402588,-71.50338745,-75.33552551,,,,,,,,
3,16:09.3,00:26,60,0,16:10.9,1661948171,0.005986253,0.017932928,-0.001536644,0.027389526,-0.302566528,-0.945266724,28.56402588,-71.50338745,-75.33552551,,,,,,,,
3,16:09.3,00:26,60,0,16:10.9,1661948171,-0.014055898,0.013130449,0.009986321,0.028778076,-0.304870605,-0.940933228,28.73014832,-71.47212219,-74.97244263,,,,,,,,
3,16:09.3,00:26,60,0,16:10.9,1661948171,-0.033859696,0.008568987,0.017784057,0.030776978,-0.306945801,-0.94152832,28.65403748,-71.25537109,-75.15318298,,,,,,,,
3,16:09.3,00:26,60,0,16:10.9,1661948171,-0.042388203,0.010665428,0.016386164,0.029418945,-0.306869507,-0.948730469,28.56256104,-71.08308411,-75.434021,,,,,,,,
3,16:09.3,00:26,60,0,16:10.9,1661948171,-0.028446023,0.015926502,0.006764695,0.028900146,-0.300170898,-0.953659058,28.63497925,-71.55064392,-75.61445618,,,,,,,,
3,16:09.3,00:26,60,0,16:10.9,1661948171,-0.00500621,0.016039953,0.00823263,0.028152466,-0.300033569,-0.967681885,28.60209656,-71.28610229,-75.16218567,,,,,,,,
3,16:09.3,00:26,60,0,16:11.0,1661948171,-0.005294098,0.009548498,0.003928695,0.02734375,-0.303741455,-0.972503662,28.61354065,-71.1335144,-75.10942078,,,,,,,,
3,16:09.3,00:26,60,0,16:11.0,1661948171,0.00024075,0.004199006,-0.004022439,0.028533936,-0.302108765,-0.974990845,28.61354065,-71.1335144,-75.10942078,,,,,,,,
3,16:09.3,00:26,60,0,16:11.0,1661948171,0.006013418,0.001733718,-0.005844307,0.030502319,-0.303726196,-0.975372314,28.5308075,-70.92524719,-75.30769348,,,,,,,,
3,16:09.3,00:26,60,0,16:11.0,1661948171,0.012589828,-0.011796472,-0.00287941,0.032867432,-0.305923462,-0.973846436,28.7518158,-71.1580658,-75.17799377,,,,,,,,
3,16:09.3,00:26,60,0,16:11.0,1661948171,0.019491143,-0.025786324,0.003381682,0.035171509,-0.308578491,-0.973464966,28.60206604,-71.24946594,-75.30526733,,,,,,,,
3,16:09.3,00:26,60,0,16:11.0,1661948171,0.030241792,-0.021677865,0.00610503,0.035949707,-0.308425903,-0.972122192,28.67501831,-71.06221008,-75.25112915,,,,,,,,
3,16:09.3,00:26,60,0,16:11.1,1661948171,0.033209086,-0.014189855,0.001858087,0.034957886,-0.305175781,-0.960845947,28.50590515,-70.8440094,-75.14079285,,,,,,,,
3,16:09.3,00:26,60,0,16:11.1,1661948171,0.031763522,-0.0115978,0.004031227,0.033721924,-0.302459717,-0.953735352,28.50590515,-70.8440094,-75.14079285,,,,,,,,
3,16:09.3,00:26,60,0,16:11.1,1661948171,0.021925006,-0.014552045,0.008127435,0.03086853,-0.304382324,-0.951721191,28.65150452,-71.1270752,-75.28173828,,,,,,,,
3,16:09.3,00:26,60,0,16:11.1,1661948171,0.001625061,-0.021061609,0.008600679,0.029418945,-0.305770874,-0.949569702,28.59135437,-71.2638855,-75.42147827,,,,,,,,
3,16:09.3,00:26,60,0,16:11.1,1661948171,-0.002630937,-0.01685781,0.005547098,0.027572632,-0.303909302,-0.948074341,28.51373291,-71.18240356,-75.35673523,,,,,,,,
3,16:09.3,00:26,60,0,16:11.1,1661948171,0.001201352,-0.017591244,-0.000788828,0.027511597,-0.300735474,-0.946685791,28.56300354,-71.14283752,-75.17970276,,,,,,,,
3,16:09.3,00:26,60,0,16:11.2,1661948171,0.001960886,-0.011231616,-0.002750246,0.02796936,-0.297332764,-0.951583862,28.64001465,-71.14045715,-75.63513184,,,,,,,,
3,16:09.3,00:26,60,0,16:11.2,1661948171,0.002002697,0.005402755,0.003353186,0.028366089,-0.300384521,-0.953231812,28.64001465,-71.14045715,-75.63513184,,,,,,,,
3,16:09.3,00:26,60,0,16:11.2,1661948171,0.016618924,0.02489736,0.007275223,0.027313232,-0.302947998,-0.95362854,28.68540955,-71.18447876,-75.52764893,,,,,,,,
3,16:09.3,00:26,60,0,16:11.2,1661948171,0.022831546,0.024741299,0.007781757,0.028640747,-0.300582886,-0.952850342,28.61555481,-71.14163208,-75.69841003,,,,,,,,
3,16:09.3,00:26,60,0,16:11.2,1661948171,0.007002782,0.00384667,0.005172125,0.030563354,-0.296600342,-0.952392578,28.61364746,-71.38500977,-75.10580444,,,,,,,,
3,16:09.3,00:26,60,0,16:11.2,1661948171,-0.011504057,-0.015777632,-0.000312389,0.031326294,-0.297409058,-0.955444336,28.58410645,-71.0397644,-75.31019592,,,,,,,,
3,16:09.3,00:26,60,0,16:11.3,1661948171,-0.019106849,-0.037310621,0.002587794,0.031356812,-0.302398682,-0.956985474,28.59223938,-71.13076782,-75.19590759,,,,,,,,
3,16:09.3,00:26,60,0,16:11.3,1661948171,-0.017094831,-0.032757947,0.014919295,0.030960083,-0.307815552,-0.957244873,28.59223938,-71.13076782,-75.19590759,,,,,,,,
3,16:09.3,00:26,60,0,16:11.3,1661948171,-0.010338125,-0.022886141,0.014801317,0.028900146,-0.312973022,-0.954772949,28.54217529,-71.17773438,-75.11897278,,,,,,,,
3,16:09.3,00:26,60,0,16:11.3,1661948171,-0.001986452,-0.019315108,0.008329036,0.027542114,-0.308654785,-0.952011108,28.59486389,-71.03509521,-75.19792175,,,,,,,,
3,16:09.3,00:26,60,0,16:11.3,1661948171,0.003639742,-0.027248133,0.001518534,0.024734497,-0.303939819,-0.959030151,28.60154724,-71.03587341,-75.00964355,,,,,,,,
3,16:09.3,00:26,60,0,16:11.3,1661948171,0.00338035,-0.021581192,-0.004956143,0.021835327,-0.303009033,-0.963272095,28.6222229,-71.10424805,-75.11286926,,,,,,,,
3,16:09.3,00:26,60,0,16:11.4,1661948171,-0.000107059,-0.011468371,-0.006085856,0.020202637,-0.306106567,-0.957092285,28.5382843,-71.05654907,-75.18598938,,,,,,,,
3,16:09.3,00:26,60,0,16:11.4,1661948171,0.019730828,-0.000194943,-0.007115434,0.019470215,-0.305664063,-0.956344604,28.5382843,-71.05654907,-75.18598938,,,,,,,,
3,16:09.3,00:26,60,0,16:11.4,1661948171,0.029357623,-0.001618137,-0.01230993,0.021484375,-0.301177979,-0.958175659,28.56452942,-71.17701721,-75.25474548,,,,,,,,
3,16:09.3,00:26,60,0,16:11.4,1661948171,0.019128155,-0.010940532,-0.009865947,0.025466919,-0.300628662,-0.959381104,28.45089722,-71.10050964,-75.2099762,,,,,,,,
3,16:09.3,00:26,60,0,16:11.4,1661948171,0.00736364,-0.021113541,-0.012143748,0.028945923,-0.30166626,-0.961761475,28.74815369,-71.20046997,-75.17764282,,,,,,,,
3,16:09.3,00:26,60,0,16:11.4,1661948171,0.00664006,-0.019017367,-0.015111841,0.030487061,-0.303604126,-0.957489014,28.61608887,-71.22563171,-75.28057861,,,,,,,,
3,16:09.3,00:26,60,0,16:11.5,1661948171,0.005246694,-0.012263591,-0.018374746,0.029525757,-0.303756714,-0.950119019,28.55073547,-71.21858215,-75.26329041,,,,,,,,
3,16:09.3,00:26,60,0,16:11.5,1661948171,0.008133294,-0.018048775,-0.010078733,0.028686523,-0.305786133,-0.947967529,28.55073547,-71.21858215,-75.26329041,,,,,,,,
3,16:09.3,00:26,60,0,16:11.5,1661948171,-0.006755907,-0.021227524,-0.014470552,0.030731201,-0.310516357,-0.948547363,28.63467407,-71.1733551,-75.05433655,,,,,,,,
3,16:09.3,00:26,60,0,16:11.5,1661948172,-0.025176193,-0.018394187,-0.018008562,0.027359009,-0.308349609,-0.948898315,28.67784119,-71.06919861,-75.33094788,,,,,,,,
3,16:09.3,00:26,60,0,16:11.5,1661948172,-0.013536848,-0.008376174,-0.014777082,0.026351929,-0.306533813,-0.949508667,28.63572693,-71.2205658,-75.1269989,,,,,,,,
3,16:09.3,00:26,60,0,16:11.5,1661948172,0.0101802,0.001552357,-0.02910622,0.025878906,-0.304870605,-0.950332642,28.52793884,-71.31617737,-75.33448792,,,,,,,,
3,16:09.3,00:26,60,0,16:11.6,1661948172,0.025885393,0.009446499,-0.032498288,0.026321411,-0.298339844,-0.952529907,28.64321899,-71.36170959,-75.12011719,,,,,,,,
3,16:09.3,00:26,60,0,16:11.6,1661948172,0.011141068,0.013138972,-0.031892153,0.029388428,-0.297683716,-0.949203491,28.64321899,-71.36170959,-75.12011719,,,,,,,,
3,16:09.3,00:26,60,0,16:11.6,1661948172,-0.019669043,-0.000165382,-0.024435835,0.030654907,-0.305892944,-0.944335938,28.77787781,-71.51287842,-74.9960022,,,,,,,,
3,16:09.3,00:26,60,0,16:11.6,1661948172,-0.036393961,-0.014149908,-0.015685753,0.032272339,-0.308898926,-0.943786621,28.73954773,-71.29389954,-74.62010193,,,,,,,,
3,16:09.3,00:26,60,0,16:11.6,1661948172,-0.039519446,-0.021690115,-0.006139385,0.034942627,-0.311233521,-0.95111084,28.5553894,-71.32022095,-75.19955444,,,,,,,,
3,16:09.3,00:26,60,0,16:11.6,1661948172,-0.03743499,-0.026790069,-0.007621168,0.034133911,-0.309768677,-0.955657959,28.63813782,-71.21517944,-75.47547913,,,,,,,,
3,16:09.3,00:26,60,0,16:11.7,1661948172,-0.009082977,0.000895355,-0.018414427,0.027755737,-0.303161621,-0.956741333,28.68203735,-71.01412964,-75.12579346,,,,,,,,
3,16:09.3,00:26,60,0,16:11.7,1661948172,-0.007877098,0.014895859,-0.023905333,0.024215698,-0.299942017,-0.953170776,28.68203735,-71.01412964,-75.12579346,,,,,,,,
3,16:09.3,00:26,60,0,16:11.7,1661948172,-0.006328736,0.022102639,-0.022974824,0.02494812,-0.30128479,-0.953155518,28.84255981,-71.36813354,-74.29989624,,,,,,,,
3,16:09.3,00:26,60,0,16:11.7,1661948172,-0.005224323,0.024456341,-0.021636586,0.027862549,-0.306503296,-0.955703735,28.640625,-71.2412262,-75.13197327,,,,,,,,
3,16:09.3,00:26,60,0,16:11.7,1661948172,-0.004234426,0.020644026,-0.021153489,0.031082153,-0.304580688,-0.956985474,28.75213623,-71.31983948,-75.12458801,,,,,,,,
3,16:09.3,00:26,60,0,16:11.7,1661948172,-0.005093296,0.005979596,-0.017050889,0.034667969,-0.3046875,-0.956192017,28.5193634,-71.05352783,-75.45860291,,,,,,,,
3,16:09.3,00:26,60,0,16:11.8,1661948172,-0.015154186,0.000422111,-0.016047676,0.036636353,-0.306365967,-0.959381104,28.5740509,-71.42538452,-75.13323975,,,,,,,,
3,16:09.3,00:26,60,0,16:11.8,1661948172,-0.015857526,-0.011882226,-0.018383801,0.039199829,-0.302352905,-0.953903198,28.5740509,-71.42538452,-75.13323975,,,,,,,,
3,16:09.3,00:26,60,0,16:11.8,1661948172,-0.021814485,-0.019182483,-0.019561983,0.040420532,-0.29927063,-0.957595825,28.65458679,-71.21672058,-74.87237549,,,,,,,,
3,16:09.3,00:26,60,0,16:11.8,1661948172,-0.028276646,-0.011305385,-0.017886855,0.038497925,-0.29876709,-0.953964233,28.56604004,-71.1762085,-74.8527832,,,,,,,,
3,16:09.3,00:26,60,0,16:11.8,1661948172,-0.012638031,0.006787332,-0.020304206,0.03352356,-0.301696777,-0.947479248,28.66630554,-71.32527161,-75.25924683,,,,,,,,
3,16:09.3,00:26,60,0,16:11.8,1661948172,-0.003800065,0.030794664,-0.029514749,0.030349731,-0.297363281,-0.949325562,28.61694336,-71.31863403,-75.35173035,,,,,,,,
3,16:09.3,00:26,60,0,16:11.9,1661948172,0.00274492,0.049354767,-0.035466914,0.030105591,-0.290313721,-0.939086914,28.55931091,-71.32067871,-74.93013,,,,,,,,
3,16:09.3,00:26,60,0,16:11.9,1661948172,-0.01495578,0.025522937,-0.028572789,0.036239624,-0.290374756,-0.936737061,28.55931091,-71.32067871,-74.93013,,,,,,,,
3,16:09.3,00:26,60,0,16:11.9,1661948172,-0.046550991,-0.005664277,-0.040641969,0.039886475,-0.298690796,-0.940628052,28.64894104,-71.51321411,-75.15258789,,,,,,,,
3,16:09.3,00:26,60,0,16:11.9,1661948172,-0.062752331,-0.022316225,-0.04298342,0.041320801,-0.299041748,-0.942993164,28.59689331,-71.41543579,-75.21589661,,,,,,,,
3,16:09.3,00:26,60,0,16:11.9,1661948172,-0.014195448,0.005145494,-0.059732839,0.043151855,-0.297195435,-0.942550659,28.67788696,-71.24182129,-75.57746887,,,,,,,,
3,16:09.3,00:26,60,0,16:11.9,1661948172,-0.001764611,0.042542933,-0.068432587,0.04069519,-0.283493042,-0.923660278,28.80825806,-71.40594482,-75.34587097,,,,,,,,
3,16:09.3,00:26,60,0,16:12.0,1661948172,-0.022500249,0.05530054,-0.063415725,0.035293579,-0.288497925,-0.934158325,28.53501892,-71.31568909,-75.0435791,,,,,,,,
3,16:09.3,00:26,60,0,16:12.0,1661948172,-0.047072438,0.072120267,-0.062761652,0.039474487,-0.293945313,-0.938217163,28.77719116,-71.4397583,-75.20704651,,,,,,,,
3,16:09.3,00:26,60,0,16:12.0,1661948172,-0.059298477,0.092247106,-0.048768605,0.03918457,-0.296646118,-0.937561035,28.77719116,-71.4397583,-75.20704651,,,,,,,,
3,16:09.3,00:26,60,0,16:12.0,1661948172,-0.068158814,0.106708338,-0.05403181,0.039611816,-0.294219971,-0.938919067,28.88031006,-71.33598328,-75.21133423,,,,,,,,
3,16:09.3,00:26,60,0,16:12.0,1661948172,-0.058753595,0.118953819,-0.060341105,0.042617798,-0.285415649,-0.951705933,28.99934387,-71.28675842,-75.6166687,,,,,,,,
3,16:09.3,00:26,60,0,16:12.0,1661948172,-0.032863142,0.125728101,-0.05812136,0.049285889,-0.281967163,-0.961791992,29.13755798,-71.13079834,-75.32014465,,,,,,,,
3,16:09.3,00:26,60,0,16:12.1,1661948172,-0.023864853,0.108414358,-0.062268168,0.054626465,-0.291809082,-0.96081543,29.11543274,-71.43978882,-75.51437378,,,,,,,,
3,16:09.3,00:26,60,0,16:12.1,1661948172,-0.036922864,0.072784459,-0.056379919,0.054046631,-0.288162231,-0.970504761,29.11265564,-71.20759583,-75.38726807,,,,,,,,
3,16:09.3,00:26,60,0,16:12.1,1661948172,-0.057434265,0.061267086,-0.053524744,0.055908203,-0.292938232,-0.976043701,29.11265564,-71.20759583,-75.38726807,,,,,,,,
3,16:09.3,00:26,60,0,16:12.1,1661948172,-0.055364989,0.052985454,-0.043115779,0.055328369,-0.291488647,-0.961166382,29.30926514,-71.43608093,-75.44924927,,,,,,,,
3,16:09.3,00:26,60,0,16:12.1,1661948172,-0.045551773,0.062528626,-0.03317047,0.053955078,-0.293624878,-0.959289551,29.18920898,-71.05892944,-75.66911316,,,,,,,,
3,16:09.3,00:26,60,0,16:12.1,1661948172,-0.056127984,0.070810524,-0.046556317,0.057754517,-0.296798706,-0.953079224,29.24720764,-71.17631531,-75.65037537,,,,,,,,
3,16:09.3,00:26,60,0,16:12.2,1661948172,-0.07254797,0.064540644,-0.05115027,0.055267334,-0.284118652,-0.953079224,29.28544617,-71.17860413,-75.73495483,,,,,,,,
3,16:09.3,00:26,60,0,16:12.2,1661948172,-0.079835444,0.059478773,-0.030384538,0.056365967,-0.291244507,-0.961364746,29.22346497,-70.868927,-75.65623474,,,,,,,,
3,16:09.3,00:26,60,0,16:12.2,1661948172,-0.074318972,0.070496271,-0.024386832,0.060256958,-0.301040649,-0.963989258,29.22346497,-70.868927,-75.65623474,,,,,,,,
3,16:09.3,00:26,60,0,16:12.2,1661948172,-0.060519271,0.064585119,-0.027831365,0.060073853,-0.293807983,-0.959243774,29.5083313,-70.99801636,-75.84103394,,,,,,,,
3,16:09.3,00:26,60,0,16:12.2,1661948172,-0.045349905,0.052840578,-0.048759284,0.05632019,-0.281158447,-0.967163086,29.34408569,-71.03129578,-75.6322937,,,,,,,,
3,16:09.3,00:26,60,0,16:12.2,1661948172,-0.035905537,0.053954312,-0.074253459,0.057525635,-0.273925781,-0.966491699,29.3170166,-70.93318176,-75.92332458,,,,,,,,
3,16:09.3,00:26,60,0,16:12.3,1661948172,-0.020825387,0.070655794,-0.075618062,0.057296753,-0.267364502,-0.962661743,29.62428284,-71.25120544,-75.52005005,,,,,,,,
3,16:09.3,00:26,60,0,16:12.3,1661948172,-0.018791797,0.077808779,-0.069794528,0.064849854,-0.279830933,-0.951156616,29.63204956,-71.15805054,-76.0382843,,,,,,,,
3,16:09.3,00:26,60,0,16:12.3,1661948172,-0.034259437,0.076187979,-0.072702167,0.064361572,-0.283843994,-0.952804565,29.63204956,-71.15805054,-76.0382843,,,,,,,,
3,16:09.3,00:26,60,0,16:12.3,1661948172,-0.064993914,0.079882582,-0.06950158,0.060943604,-0.281784058,-0.950027466,29.65242004,-71.12220764,-76.00219727,,,,,,,,
3,16:09.3,00:26,60,0,16:12.3,1661948172,-0.079348086,0.066425895,-0.072728266,0.06111145,-0.280532837,-0.945617676,29.67141724,-71.17453003,-75.88478088,,,,,,,,
3,16:09.3,00:26,60,0,16:12.3,1661948172,-0.085812643,0.050521497,-0.079520659,0.061798096,-0.279830933,-0.95552063,29.76533508,-71.17108154,-75.89169312,,,,,,,,
3,16:09.3,00:26,60,0,16:12.4,1661948172,-0.084601437,0.052661347,-0.093450855,0.06489563,-0.271453857,-0.960159302,29.78393555,-71.11895752,-75.99517822,,,,,,,,
3,16:09.3,00:26,60,0,16:12.4,1661948172,0.006560697,0.098214452,-0.117034478,0.072525024,-0.27142334,-0.959396362,29.79258728,-71.11889648,-75.93153381,,,,,,,,
3,16:09.3,00:26,60,0,16:12.4,1661948172,0.032032502,0.102722917,-0.119990853,0.080627441,-0.267227173,-0.963531494,29.79258728,-71.11889648,-75.93153381,,,,,,,,
3,16:09.3,00:26,60,0,16:12.4,1661948172,0.022819296,0.078735292,-0.117176691,0.086349487,-0.270309448,-0.971542358,29.75531006,-71.18257141,-76.19514465,,,,,,,,
3,16:09.3,00:26,60,0,16:12.4,1661948172,-0.013182115,0.033186183,-0.11024182,0.092041016,-0.275085449,-0.979187012,29.84939575,-71.26147461,-75.88110352,,,,,,,,
3,16:09.3,00:26,60,0,16:12.4,1661948172,-0.04720453,-0.013353356,-0.092701708,0.097686768,-0.277130127,-0.980575562,29.94944763,-71.23701477,-76.09875488,,,,,,,,
3,16:09.3,00:26,60,0,16:12.5,1661948172,-0.088671014,-0.040739707,-0.085264032,0.100509644,-0.279693604,-0.976547241,29.83601379,-71.54368591,-75.89477539,,,,,,,,
3,16:09.3,00:26,60,0,16:12.5,1661948172,-0.114646954,-0.041592717,-0.071335167,0.092926025,-0.28465271,-0.965301514,29.85704041,-71.487854,-75.94154358,,,,,,,,
3,16:09.3,00:26,60,0,16:12.5,1661948172,-0.100405168,-0.011225757,-0.056828928,0.090377808,-0.287536621,-0.959762573,29.85704041,-71.487854,-75.94154358,,,,,,,,
3,16:09.3,00:26,60,0,16:12.5,1661948173,-0.06231504,0.038773229,-0.054132211,0.088302612,-0.283935547,-0.957015991,29.95838928,-71.0606842,-75.74501038,,,,,,,,
3,16:09.3,00:26,60,0,16:12.5,1661948173,-0.019288211,0.078869782,-0.063524381,0.090835571,-0.271957397,-0.950149536,29.95562744,-71.47393799,-75.9354248,,,,,,,,
3,16:09.3,00:26,60,0,16:12.5,1661948173,-0.010722685,0.077486802,-0.063931312,0.090896606,-0.26965332,-0.951766968,29.9085083,-71.40107727,-76.13696289,,,,,,,,
3,16:09.3,00:26,60,0,16:12.6,1661948173,-0.019916184,0.051339354,-0.056133577,0.094085693,-0.272384644,-0.957580566,29.92736816,-71.43312073,-75.91400146,,,,,,,,
3,16:09.3,00:26,60,0,16:12.6,1661948173,-0.045796251,0.020664798,-0.044752292,0.096054077,-0.279647827,-0.964935303,29.84463501,-70.95053101,-76.08302307,,,,,,,,
3,16:09.3,00:26,60,0,16:12.6,1661948173,-0.067438696,0.009277122,-0.045319012,0.096496582,-0.277481079,-0.965057373,29.84463501,-70.95053101,-76.08302307,,,,,,,,
3,16:09.3,00:26,60,0,16:12.6,1661948173,-0.087396159,0.013978666,-0.050598995,0.094360352,-0.272125244,-0.956588745,29.85140991,-71.25466919,-75.57144165,,,,,,,,
3,16:09.3,00:26,60,0,16:12.6,1661948173,-0.083212865,0.019773438,-0.055580971,0.091522217,-0.266281128,-0.951065063,29.77224731,-70.99411011,-75.84384155,,,,,,,,
3,16:09.3,00:26,60,0,16:12.6,1661948173,-0.056109076,0.020293554,-0.069552447,0.088928223,-0.257583618,-0.950927734,29.95291138,-71.16365051,-75.75456238,,,,,,,,
3,16:09.3,00:26,60,0,16:12.7,1661948173,-0.018057297,0.038098117,-0.094184556,0.084564209,-0.247879028,-0.959365845,29.89421082,-71.12255859,-76.15432739,,,,,,,,
3,16:09.3,00:26,60,0,16:12.7,1661948173,-0.016549149,0.026819896,-0.107799435,0.08164978,-0.240219116,-0.964996338,29.88928223,-71.21815491,-75.60678101,,,,,,,,
3,16:09.3,00:26,60,0,16:12.7,1661948173,-0.046365368,-0.010676879,-0.105724033,0.086288452,-0.243499756,-0.975769043,29.88928223,-71.21815491,-75.60678101,,,,,,,,
3,16:09.3,00:26,60,0,16:12.7,1661948173,-0.073436401,-0.053597449,-0.116319153,0.087463379,-0.250549316,-0.984985352,29.84646606,-71.3193512,-75.60493469,,,,,,,,
3,16:09.3,00:26,60,0,16:12.7,1661948173,-0.081524954,-0.075767199,-0.135697911,0.087738037,-0.249862671,-0.986526489,29.76600647,-71.32258606,-76.0403595,,,,,,,,
3,16:09.3,00:26,60,0,16:12.7,1661948173,-0.060828464,-0.064316406,-0.124577349,0.090301514,-0.241546631,-0.982589722,29.71360779,-71.36306763,-75.83677673,,,,,,,,
3,16:09.3,00:26,60,0,16:12.8,1661948173,-0.038410772,-0.041644383,-0.105652128,0.092102051,-0.255828857,-0.970581055,29.64027405,-71.3969574,-75.88601685,,,,,,,,
3,16:09.3,00:26,60,0,16:12.8,1661948173,-0.046249254,-0.042657982,-0.09404474,0.089523315,-0.262435913,-0.964004517,29.62071228,-71.3901825,-75.5909729,,,,,,,,
3,16:09.3,00:26,60,0,16:12.8,1661948173,-0.09446259,-0.087299219,-0.096705771,0.08946228,-0.259811401,-0.970794678,29.59138489,-71.55233765,-75.63308716,,,,,,,,
3,16:09.3,00:26,60,0,16:12.8,1661948173,-0.120703782,-0.143578205,-0.105290471,0.091171265,-0.257583618,-0.97984314,29.59138489,-71.55233765,-75.63308716,,,,,,,,
3,16:09.3,00:26,60,0,16:12.8,1661948173,-0.102764729,-0.188442882,-0.126784577,0.088668823,-0.251876831,-0.984024048,29.41793823,-71.37669373,-75.5136261,,,,,,,,
3,16:09.3,00:26,60,0,16:12.8,1661948173,-0.039883234,-0.205394701,-0.155978948,0.086013794,-0.241516113,-0.98777771,29.33781433,-71.46681213,-75.62130737,,,,,,,,
3,16:09.3,00:26,60,0,16:12.9,1661948173,0.017576331,-0.215751735,-0.188207192,0.082885742,-0.236907959,-0.983230591,29.14842224,-71.45726013,-75.43307495,,,,,,,,
3,16:09.3,00:26,60,0,16:12.9,1661948173,0.031243141,-0.241551108,-0.20568179,0.079772949,-0.242858887,-0.983108521,28.8053894,-71.54240417,-75.46089172,,,,,,,,
3,16:09.3,00:26,60,0,16:12.9,1661948173,0.024718396,-0.327162682,-0.199583151,0.081680298,-0.24987793,-0.991790771,28.66275024,-71.62791443,-75.13275146,,,,,,,,
3,16:09.3,00:26,60,0,16:12.9,1661948173,0.06983634,-0.41705076,-0.162173461,0.079269409,-0.246383667,-1.009918213,28.66275024,-71.62791443,-75.13275146,,,,,,,,
3,16:09.3,00:26,60,0,16:12.9,1661948173,0.062990684,-0.38148957,-0.25235502,0.092636108,-0.214889526,-1.02166748,28.15013123,-71.94787598,-75.05174255,,,,,,,,
3,16:09.3,00:26,60,0,16:12.9,1661948173,-0.010157563,-0.393595502,-0.222158768,0.053466797,-0.264724731,-1.01852417,27.91337585,-71.92581177,-75.19055176,,,,,,,,
3,16:09.3,00:26,60,0,16:13.0,1661948173,-0.036912478,-0.418486204,-0.205693508,0.0574646,-0.258102417,-1.005462646,27.78219604,-72.41908264,-74.53138733,,,,,,,,
3,16:09.3,00:26,60,0,16:13.0,1661948173,0.018029601,-0.427785963,-0.194878411,0.057495117,-0.268997192,-0.991027832,27.43179321,-72.39959717,-73.58425903,,,,,,,,
3,16:09.3,00:26,60,0,16:13.0,1661948173,0.121946413,-0.359492925,-0.19077368,0.05178833,-0.270309448,-0.984573364,26.97357178,-72.52671814,-74.3286438,,,,,,,,
3,16:09.3,00:26,60,0,16:13.0,1661948173,0.228200681,-0.253668491,-0.21545133,0.043685913,-0.24621582,-0.957122803,26.97357178,-72.52671814,-74.3286438,,,,,,,,
3,16:09.3,00:26,60,0,16:13.0,1661948173,0.313760324,-0.10023659,-0.257600115,0.037200928,-0.233840942,-0.938812256,26.95480347,-72.63105774,-74.09970093,,,,,,,,
3,16:09.3,00:26,60,0,16:13.0,1661948173,0.339320811,0.063234097,-0.26992416,0.029586792,-0.233291626,-0.917861938,26.94654846,-73.06404114,-74.52468872,,,,,,,,
3,16:09.3,00:26,60,0,16:13.1,1661948173,0.322701621,0.184022833,-0.244177517,0.034011841,-0.253082275,-0.898986816,26.91868591,-73.62384033,-74.57200623,,,,,,,,
3,16:09.3,00:26,60,0,16:13.1,1661948173,0.28927309,0.225641916,-0.250888683,0.049987793,-0.256134033,-0.904098511,27.18217468,-73.83036804,-74.72320557,,,,,,,,
3,16:09.3,00:26,60,0,16:13.1,1661948173,-0.029547772,0.329789624,-0.518854088,0.021377563,-0.201400757,-0.887786865,27.44052124,-74.37007141,-74.65541077,,,,,,,,
3,16:09.3,00:26,60,0,16:13.1,1661948173,-0.1377829,0.305090936,-0.598051705,0.059402466,-0.198501587,-0.880569458,27.44052124,-74.37007141,-74.65541077,,,,,,,,
3,16:09.3,00:26,60,0,16:13.1,1661948173,-0.16232899,0.311140306,-0.599595273,0.066574097,-0.221374512,-0.898742676,27.37757874,-74.45005798,-74.90756226,,,,,,,,
3,16:09.3,00:26,60,0,16:13.1,1661948173,-0.094742488,0.301058111,-0.545160793,0.077346802,-0.239761353,-0.916259766,27.49647522,-74.723526,-75.27990723,,,,,,,,
3,16:09.3,00:26,60,0,16:13.2,1661948173,-0.063428241,0.337064848,-0.45999876,0.095275879,-0.250976563,-0.936660767,27.65093994,-74.70098877,-75.44064331,,,,,,,,
3,16:09.3,00:26,60,0,16:13.2,1661948173,-0.080589651,0.260859558,-0.183512572,0.113113403,-0.257156372,-0.917373657,27.87409973,-75.07556152,-75.54901123,,,,,,,,
3,16:09.3,00:26,60,0,16:13.2,1661948173,-0.143180861,0.230144256,-0.064670073,0.109359741,-0.279052734,-0.945129395,28.08312988,-75.10263062,-75.68121338,,,,,,,,
3,16:09.3,00:26,60,0,16:13.2,1661948173,-0.194704506,0.272335386,-0.00859695,0.10874939,-0.310287476,-0.939605713,28.08312988,-75.10263062,-75.68121338,,,,,,,,
3,16:09.3,00:26,60,0,16:13.2,1661948173,-0.223634958,0.421984533,0.086445943,0.128753662,-0.273849487,-0.92666626,28.32606506,-75.06907654,-75.56721497,,,,,,,,
3,16:09.3,00:26,60,0,16:13.2,1661948173,0.016824254,0.387697665,0.037158288,0.130218506,-0.289642334,-0.902786255,28.42453003,-74.94972229,-75.97299194,,,,,,,,
3,16:09.3,00:26,60,0,16:13.3,1661948173,0.33248208,0.13936828,-0.007644604,0.143707275,-0.233001709,-0.918273926,28.6125946,-75.15873718,-75.92340088,,,,,,,,
3,16:09.3,00:26,60,0,16:13.3,1661948173,0.243325572,0.073543194,-0.174259419,0.199371338,-0.275894165,-1.050048828,28.79170227,-75.57029724,-76.28952026,,,,,,,,
3,16:09.3,00:26,60,0,16:13.3,1661948173,-0.143145441,-0.09704053,-0.130305276,0.192443848,-0.213531494,-0.983352661,28.66516113,-75.34127808,-76.1918335,,,,,,,,
3,16:09.3,00:26,60,0,16:13.3,1661948173,-0.477374555,-0.272956701,-0.096135588,0.126602173,-0.267120361,-1.002075195,28.66516113,-75.34127808,-76.1918335,,,,,,,,
3,16:09.3,00:26,60,0,16:13.3,1661948173,-0.627945954,-0.537101002,0.022020081,0.131011963,-0.350097656,-1.016983032,28.55752563,-75.33879089,-75.89271545,,,,,,,,
3,16:09.3,00:26,60,0,16:13.3,1661948173,-0.682326106,-0.695401961,0.13369841,0.158721924,-0.362457275,-1.043228149,28.01210022,-74.48832703,-75.44425964,,,,,,,,
3,16:09.3,00:26,60,0,16:13.4,1661948173,-0.67472145,-0.747638268,0.203706257,0.13949585,-0.34236145,-1.017501831,27.52720642,-74.20187378,-75.02297974,,,,,,,,
3,16:09.3,00:26,60,0,16:13.4,1661948173,-0.586641391,-0.678035487,0.168601799,0.108779907,-0.272827148,-0.993377686,26.90298462,-73.64102173,-74.62446594,,,,,,,,
3,16:09.3,00:26,60,0,16:13.4,1661948173,-0.433705105,-0.665390532,0.042507247,0.108612061,-0.235046387,-0.962722778,26.47290039,-73.22250366,-74.35586548,,,,,,,,
3,16:09.3,00:26,60,0,16:13.4,1661948173,-0.244934121,-0.696486933,0.03402934,0.047042847,-0.147796631,-0.99395752,26.47290039,-73.22250366,-74.35586548,,,,,,,,
3,16:09.3,00:26,60,0,16:13.4,1661948173,-0.033140643,-0.194826479,-0.030020217,0.090454102,-0.127578735,-1.032119751,26.06256104,-73.10656738,-73.92218018,,,,,,,,
3,16:09.3,00:26,60,0,16:13.4,1661948173,0.086106656,0.222634142,-0.044582648,0.086181641,-0.303604126,-0.890533447,25.90925598,-73.13417053,-73.66424561,,,,,,,,
3,16:09.3,00:26,60,0,16:13.5,1661948173,0.124521157,0.351825418,0.026222283,0.045806885,-0.273406982,-0.891662598,26.16459656,-73.13418579,-74.01367188,,,,,,,,
3,16:09.3,00:26,60,0,16:13.5,1661948173,0.060232981,0.440906558,0.082694614,0.017303467,-0.231506348,-0.96156311,26.54966736,-73.40367126,-74.14872742,,,,,,,,
3,16:09.3,00:26,60,0,16:13.5,1661948173,0.037335388,0.563358705,-0.000844755,0.020950317,-0.189239502,-0.953445435,26.88052368,-73.18858337,-74.47702026,,,,,,,,
3,16:09.3,00:26,60,0,16:13.5,1661948174,0.102138886,0.571576954,-0.069353508,0.034515381,-0.186798096,-0.95413208,26.88052368,-73.18858337,-74.47702026,,,,,,,,
3,16:09.3,00:26,60,0,16:13.5,1661948174,0.085845666,0.420010864,0.02148665,0.066726685,-0.201034546,-0.971893311,27.28414917,-73.63731384,-74.27125549,,,,,,,,
3,16:09.3,00:26,60,0,16:13.5,1661948174,0.041981805,0.335817157,0.045534196,0.068649292,-0.21736145,-0.990219116,27.59875488,-73.47946167,-75.13401794,,,,,,,,
3,16:09.3,00:26,60,0,16:13.6,1661948174,0.113555058,0.464561821,-0.057649448,0.04864502,-0.231781006,-0.994354248,27.82887268,-73.60736084,-75.16157532,,,,,,,,
3,16:09.3,00:26,60,0,16:13.6,1661948174,0.170930734,0.481193528,-0.150959422,0.049957275,-0.225219727,-0.954772949,27.96629333,-73.68254089,-75.55838013,,,,,,,,
3,16:09.3,00:26,60,0,16:13.6,1661948174,0.137788493,0.355683273,-0.177720729,0.058868408,-0.227554321,-0.965682983,28.1905365,-74.09410095,-75.63082886,,,,,,,,
3,16:09.3,00:26,60,0,16:13.6,1661948174,0.082348936,0.1360609,-0.217270535,0.076477051,-0.192260742,-0.972839355,28.1905365,-74.09410095,-75.63082886,,,,,,,,
3,16:09.3,00:26,60,0,16:13.6,1661948174,-0.000380299,0.024681911,-0.251351274,0.120101929,-0.165496826,-1.077041626,28.32719421,-74.54367065,-75.3266449,,,,,,,,
3,16:09.3,00:26,60,0,16:13.6,1661948174,-0.098511128,-0.072142371,-0.292233194,0.11026001,-0.185501099,-0.977294922,28.2756958,-74.30102539,-75.9682312,,,,,,,,
3,16:09.3,00:26,60,0,16:13.7,1661948174,-0.169553613,-0.141240748,-0.291838247,0.100234985,-0.209106445,-0.987976074,28.1546936,-74.72622681,-75.68016052,,,,,,,,
3,16:09.3,00:26,60,0,16:13.7,1661948174,-0.255301008,-0.082164911,-0.248925933,0.123626709,-0.212158203,-0.959503174,28.00692749,-74.54135132,-75.59597778,,,,,,,,
3,16:09.3,00:26,60,0,16:13.7,1661948174,-0.290912799,-0.145238686,-0.165007331,0.151855469,-0.172317505,-0.935256958,27.95629883,-74.7691803,-74.42997742,,,,,,,,
3,16:09.3,00:26,60,0,16:13.7,1661948174,-0.271460537,-0.253982211,-0.208446417,0.1849823,-0.196517944,-0.96572876,27.95629883,-74.7691803,-74.42997742,,,,,,,,
3,16:09.3,00:26,60,0,16:13.7,1661948174,-0.152313906,-0.234372557,-0.294563726,0.150436401,-0.280395508,-1.016387939,27.59799194,-74.44793701,-75.20143127,,,,,,,,
3,16:09.3,00:26,60,0,16:13.7,1661948174,-0.032121717,-0.219602399,-0.190544915,0.127471924,-0.356292725,-1.050033569,27.26824951,-74.32450867,-75.28831482,,,,,,,,
3,16:09.3,00:26,60,0,16:13.8,1661948174,0.049211755,-0.260021461,-0.048378718,0.167510986,-0.352554321,-1.092147827,27.20680237,-74.3658905,-75.23692322,,,,,,,,
3,16:09.3,00:26,60,0,16:13.8,1661948174,0.109158978,-0.220440762,0.005255748,0.195495605,-0.32131958,-1.107376099,26.95317078,-74.52224731,-74.92047119,,,,,,,,
3,16:09.3,00:26,60,0,16:13.8,1661948174,0.264728865,-0.29737629,0.018934276,0.200866699,-0.23979187,-1.06842041,26.87190247,-74.65415955,-74.69613647,,,,,,,,
3,16:09.3,00:26,60,0,16:13.8,1661948174,0.416135432,-0.155417554,0.075269455,0.118560791,-0.260986328,-1.062011719,26.87190247,-74.65415955,-74.69613647,,,,,,,,
3,16:09.3,00:26,60,0,16:13.8,1661948174,0.549158198,0.122828452,0.03215261,0.071807861,-0.191085815,-0.91104126,26.84454346,-75.06837463,-74.77531433,,,,,,,,
3,16:09.3,00:26,60,0,16:13.8,1661948174,0.467771995,0.180094138,-0.021087975,0.056289673,-0.177841187,-0.901321411,26.90644836,-75.3848114,-75.05296326,,,,,,,,
3,16:09.3,00:26,60,0,16:13.9,1661948174,0.272238979,0.287866941,-0.149974053,0.068099976,-0.172119141,-0.909713745,26.99868774,-75.48013306,-75.30577087,,,,,,,,
3,16:09.3,00:26,60,0,16:13.9,1661948174,0.133391614,0.131071468,-0.155089719,0.12562561,-0.12387085,-0.90397644,27.19294739,-75.97277832,-75.22421265,,,,,,,,
3,16:09.3,00:26,60,0,16:13.9,1661948174,0.041381529,0.049339587,-0.149073371,0.069259644,-0.233856201,-0.998016357,27.35700989,-76.37948608,-75.31774902,,,,,,,,
3,16:09.3,00:26,60,0,16:13.9,1661948174,-0.037060816,-0.017932662,-0.22883984,0.095565796,-0.215194702,-0.997924805,27.31259155,-76.33407593,-75.05363464,,,,,,,,
3,16:09.3,00:26,60,0,16:13.9,1661948174,-0.101416903,-0.122618328,-0.321368176,0.14855957,-0.195739746,-0.999526978,27.31259155,-76.33407593,-75.05363464,,,,,,,,
3,16:09.3,00:26,60,0,16:13.9,1661948174,-0.09915508,-0.139949382,-0.302557737,0.14692688,-0.180633545,-1.000137329,27.24427795,-76.50473022,-75.36317444,,,,,,,,
3,16:09.3,00:26,60,0,16:14.0,1661948174,-0.045749645,-0.048370729,-0.268372336,0.129821777,-0.275619507,-0.986373901,27.12666321,-76.66035461,-75.13877869,,,,,,,,
3,16:09.3,00:26,60,0,16:14.0,1661948174,0.023359918,0.033354761,-0.255858408,0.120635986,-0.258209229,-0.964889526,27.18226624,-76.96751404,-75.24739075,,,,,,,,
3,16:09.3,00:26,60,0,16:14.0,1661948174,0.117140206,0.012981312,-0.093051647,0.147476196,-0.256454468,-0.941680908,27.12710571,-77.26019287,-75.16705322,,,,,,,,
3,16:09.3,00:26,60,0,16:14.0,1661948174,0.19765662,-0.073790069,-0.009753561,0.114212036,-0.310150146,-0.985092163,27.05435181,-76.98677063,-75.38101196,,,,,,,,
3,16:09.3,00:26,60,0,16:14.0,1661948174,0.154004481,-0.058134942,0.011634818,0.131851196,-0.294128418,-0.99760437,27.05435181,-76.98677063,-75.38101196,,,,,,,,
3,16:09.3,00:26,60,0,16:14.0,1661948174,0.114129236,-0.039882702,0.030240194,0.134613037,-0.262939453,-0.9637146,27.28192139,-77.4768219,-75.14128113,,,,,,,,
3,16:09.3,00:26,60,0,16:14.1,1661948174,0.090697413,-0.004258661,0.053112753,0.125549316,-0.265609741,-0.956771851,27.03189087,-77.25842285,-75.10287476,,,,,,,,
3,16:09.3,00:26,60,0,16:14.1,1661948174,0.065853316,0.003592871,0.048714543,0.121231079,-0.267242432,-0.946228027,26.92980957,-77.17810059,-75.21131897,,,,,,,,
3,16:09.3,00:26,60,0,16:14.1,1661948174,0.03858228,-0.042967974,0.053749249,0.11428833,-0.250366211,-0.950439453,27.02651978,-77.3404541,-74.90031433,,,,,,,,
3,16:09.3,00:26,60,0,16:14.1,1661948174,0.015873505,-0.076653233,0.07014713,0.113220215,-0.251663208,-0.957702637,27.03242493,-77.33630371,-75.11186218,,,,,,,,
3,16:09.3,00:26,60,0,16:14.1,1661948174,0.004494617,-0.054858722,0.059302739,0.122406006,-0.249740601,-0.966033936,27.03242493,-77.33630371,-75.11186218,,,,,,,,
3,16:09.3,00:26,60,0,16:14.1,1661948174,-0.004390221,0.020414994,0.019531623,0.120681763,-0.236816406,-0.963409424,27.07730103,-77.30639648,-75.05941772,,,,,,,,
3,16:09.3,00:26,60,0,16:14.2,1661948174,-0.025265676,0.098426439,0.006808638,0.102859497,-0.24520874,-0.947296143,27.01612854,-77.43389893,-75.14030457,,,,,,,,
3,16:09.3,00:26,60,0,16:14.2,1661948174,-0.036097551,0.087196155,-0.003670369,0.107330322,-0.254318237,-0.914077759,27.07214355,-77.02389526,-75.31349182,,,,,,,,
3,16:09.3,00:26,60,0,16:14.2,1661948174,-0.05476125,0.047535828,0.009563944,0.120223999,-0.254394531,-0.950317383,27.05108643,-77.10871887,-75.24812317,,,,,,,,
3,16:09.3,00:26,60,0,16:14.2,1661948174,-0.120859843,-0.015110243,-0.007824101,0.125305176,-0.265563965,-0.974914551,27.24551392,-77.24940491,-75.1668396,,,,,,,,
3,16:09.3,00:26,60,0,16:14.2,1661948174,-0.060411679,-0.065940668,0.016064454,0.145004272,-0.238189697,-0.988433838,27.24551392,-77.24940491,-75.1668396,,,,,,,,
3,16:09.3,00:26,60,0,16:14.2,1661948174,-0.064608821,-0.067456539,0.014453508,0.09992981,-0.266265869,-0.978256226,27.12103271,-77.05711365,-75.09458923,,,,,,,,
3,16:09.3,00:26,60,0,16:14.3,1661948174,-0.065528943,-0.050591006,-0.005234177,0.117248535,-0.242095947,-0.972259521,27.05749512,-76.83898926,-75.23573303,,,,,,,,
3,16:09.3,00:26,60,0,16:14.3,1661948174,-0.05599669,-0.028205539,-0.00517106,0.107727051,-0.240631104,-0.962097168,27.10855103,-76.9783783,-75.09368896,,,,,,,,
3,16:09.3,00:26,60,0,16:14.3,1661948174,-0.036620329,-0.007069894,-0.00227647,0.108413696,-0.242996216,-0.959213257,27.03736877,-77.0071106,-75.15078735,,,,,,,,
3,16:09.3,00:26,60,0,16:14.3,1661948174,-0.024314128,-0.01113734,-0.007748201,0.113723755,-0.239440918,-0.964355469,27.05693054,-76.73274231,-75.00546265,,,,,,,,
3,16:09.3,00:26,60,0,16:14.3,1661948174,-0.018878883,-0.029791452,-0.010879013,0.11907959,-0.233047485,-0.973342896,27.05693054,-76.73274231,-75.00546265,,,,,,,,
3,16:09.3,00:26,60,0,16:14.3,1661948174,-0.033397638,-0.037271206,-0.003631753,0.122940063,-0.23135376,-0.976531982,27.06942749,-76.87695313,-74.95117188,,,,,,,,
3,16:09.3,00:26,60,0,16:14.4,1661948174,-0.046460976,-0.047745418,0.006454171,0.123458862,-0.236923218,-0.971710205,26.93287659,-76.80444336,-75.11434937,,,,,,,,
3,16:09.3,00:26,60,0,16:14.4,1661948174,-0.05707314,-0.048606951,0.015728896,0.123291016,-0.238174438,-0.968338013,27.08836365,-76.66143799,-75.0693512,,,,,,,,
3,16:09.3,00:26,60,0,16:14.4,1661948174,-0.060990384,-0.048258343,0.02273221,0.121612549,-0.242889404,-0.964981079,26.87815857,-76.59381104,-74.91769409,,,,,,,,
3,16:09.3,00:26,60,0,16:14.4,1661948174,-0.060570137,-0.042359175,0.027615649,0.117462158,-0.242935181,-0.96546936,27.11509705,-76.87942505,-73.96195984,,,,,,,,
3,16:09.3,00:26,60,0,16:14.4,1661948174,-0.061272945,-0.039371375,0.022461101,0.114379883,-0.243759155,-0.966186523,27.11509705,-76.87942505,-73.96195984,,,,,,,,
3,16:09.3,00:26,60,0,16:14.4,1661948174,-0.06329535,-0.027292075,0.015554192,0.108398438,-0.240783691,-0.967269897,26.87200928,-76.3561554,-74.78091431,,,,,,,,
3,16:09.3,00:26,60,0,16:14.5,1661948174,-0.05959249,-0.010430803,0.009117066,0.105834961,-0.240066528,-0.964874268,26.95539856,-76.77362061,-75.00292969,,,,,,,,
3,16:09.3,00:26,60,0,16:14.5,1661948174,-0.059155199,-0.007907724,0.001990713,0.103530884,-0.243164063,-0.963821411,26.99621582,-76.5425415,-75.1762085,,,,,,,,
3,16:09.3,00:26,60,0,16:14.5,1661948174,-0.057124539,0.001983789,-0.023239543,0.104171753,-0.239044189,-0.967819214,26.83900452,-76.52986145,-75.09265137,,,,,,,,
3,16:09.3,00:26,60,0,16:14.5,1661948175,-0.045194376,0.019689815,-0.038939144,0.102630615,-0.230041504,-0.969604492,26.97424316,-76.40884399,-74.92701721,,,,,,,,
3,16:09.3,00:26,60,0,16:14.5,1661948175,-0.032628251,0.037806235,-0.037397706,0.108657837,-0.231826782,-0.968139648,26.97424316,-76.40884399,-74.92701721,,,,,,,,
3,16:09.3,00:26,60,0,16:14.5,1661948175,-0.029816485,0.036168657,-0.039053127,0.108657837,-0.231826782,-0.968139648,26.81738281,-76.64227295,-74.4365387,,,,,,,,
3,16:09.3,00:26,60,0,16:14.6,1661948175,-0.010589527,0.01928608,-0.038575089,0.115524292,-0.227615356,-0.976593018,27.10028076,-76.64309692,-75.06747437,,,,,,,,
3,16:09.3,00:26,60,0,16:14.6,1661948175,-0.006894924,0.008604673,-0.040338635,0.117889404,-0.226135254,-0.977584839,27.03877258,-76.49951172,-75.17765808,,,,,,,,
3,16:09.3,00:26,60,0,16:14.6,1661948175,-0.009570336,0.0023806,-0.031666051,0.119506836,-0.226959229,-0.975357056,26.87695313,-76.79995728,-74.99401855,,,,,,,,
3,16:09.3,00:26,60,0,16:14.6,1661948175,-0.017127854,0.006336459,-0.021561219,0.12121582,-0.229446411,-0.970687866,27.06436157,-76.73484802,-75.11891174,,,,,,,,
3,16:09.3,00:26,60,0,16:14.6,1661948175,-0.017970212,0.001933189,-0.010749583,0.122024536,-0.233825684,-0.96685791,27.06436157,-76.73484802,-75.11891174,,,,,,,,
3,16:09.3,00:26,60,0,16:14.6,1661948175,-0.020688767,-0.010777547,-0.010170346,0.122894287,-0.232925415,-0.970916748,26.95930481,-76.77726746,-74.92086792,,,,,,,,
3,16:09.3,00:26,60,0,16:14.7,1661948175,-0.020617394,-0.010900851,-0.009805227,0.122314453,-0.226699829,-0.975006104,27.13375854,-76.71209717,-74.98710632,,,,,,,,
3,16:09.3,00:26,60,0,16:14.7,1661948175,-0.013691577,-0.00087112,-0.005571067,0.119903564,-0.227584839,-0.969497681,27.05651855,-76.63705444,-75.33604431,,,,,,,,
3,16:09.3,00:26,60,0,16:14.7,1661948175,-0.014440991,-0.00392763,0.001964348,0.116546631,-0.22984314,-0.967636108,26.9226532,-76.52919006,-75.18019104,,,,,,,,
3,16:09.3,00:26,60,0,16:14.7,1661948175,-0.022832345,-0.014879081,-0.00102585,0.118118286,-0.231628418,-0.971374512,26.98570251,-76.51921082,-75.14125061,,,,,,,,
3,16:09.3,00:26,60,0,16:14.7,1661948175,-0.021619275,-0.013814083,-0.008538893,0.117385864,-0.227783203,-0.97517395,27.03421021,-76.69387817,-74.97827148,,,,,,,,
3,16:09.3,00:26,60,0,16:14.7,1661948175,-0.005482117,-0.012054266,-0.01271473,0.115768433,-0.222854614,-0.972473145,27.03421021,-76.69387817,-74.97827148,,,,,,,,
3,16:09.3,00:26,60,0,16:14.8,1661948175,-0.006870956,0.000665258,-0.016194949,0.11555481,-0.223358154,-0.972518921,27.04754639,-76.58222961,-75.38581848,,,,,,,,
3,16:09.3,00:26,60,0,16:14.8,1661948175,-0.019747073,-0.004613927,-0.01313258,0.112991333,-0.22996521,-0.967834473,26.99977112,-76.31922913,-75.44297791,,,,,,,,
3,16:09.3,00:26,60,0,16:14.8,1661948175,-0.025254224,-0.008683237,-0.018807244,0.113021851,-0.23135376,-0.967895508,26.83314514,-76.39364624,-75.32489014,,,,,,,,
3,16:09.3,00:26,60,0,16:14.8,1661948175,-0.0219804,-0.008035556,-0.01996492,0.114318848,-0.231948853,-0.969284058,26.82815552,-76.39710999,-75.20152283,,,,,,,,
3,16:09.3,00:26,60,0,16:14.8,1661948175,-0.009699499,-0.023894414,-0.024041687,0.116317749,-0.226394653,-0.969177246,27.04161072,-76.57250977,-75.19134521,,,,,,,,
3,16:09.3,00:26,60,0,16:14.8,1661948175,0.007298393,-0.048069259,-0.027621508,0.118652344,-0.226150513,-0.976531982,27.04161072,-76.57250977,-75.19134521,,,,,,,,
3,16:09.3,00:26,60,0,16:14.9,1661948175,-0.017541709,-0.020389694,-0.015637816,0.112380981,-0.23576355,-0.989746094,26.90571594,-76.42893982,-75.15605164,,,,,,,,
3,16:09.3,00:26,60,0,16:14.9,1661948175,-0.009003082,-0.042533079,-0.027032949,0.121566772,-0.219848633,-0.961013794,26.84393311,-76.47541809,-75.39183044,,,,,,,,
3,16:09.3,00:26,60,0,16:14.9,1661948175,-0.013121927,-0.048508148,-0.025573004,0.116775513,-0.224563599,-0.976959229,26.87918091,-76.30166626,-75.25740051,,,,,,,,
3,16:09.3,00:26,60,0,16:14.9,1661948175,-0.02259852,-0.05957012,-0.030109167,0.119262695,-0.220275879,-0.974868774,26.83062744,-76.40420532,-74.85945129,,,,,,,,
3,16:09.3,00:26,60,0,16:14.9,1661948175,-0.021410217,-0.073565564,-0.032896165,0.115341187,-0.219314575,-0.974487305,26.76808167,-76.26010132,-75.05543518,,,,,,,,
3,16:09.3,00:26,60,0,16:14.9,1661948175,-0.029255357,-0.060179451,-0.020546021,0.111679077,-0.223373413,-0.979782104,26.76808167,-76.26010132,-75.05543518,,,,,,,,
3,16:09.3,00:26,60,0,16:15.0,1661948175,-0.037832334,-0.058764514,-0.026664634,0.113998413,-0.220993042,-0.971939087,26.63194275,-76.31768799,-75.08406067,,,,,,,,
3,16:09.3,00:26,60,0,16:15.0,1661948175,-0.052962817,-0.066250393,-0.036233106,0.114608765,-0.225189209,-0.974014282,26.46447754,-76.22918701,-75.33674622,,,,,,,,
3,16:09.3,00:26,60,0,16:15.0,1661948175,-0.043116578,-0.068703165,-0.031199731,0.114273071,-0.220169067,-0.974685669,26.43464661,-75.95298767,-75.15414429,,,,,,,,
3,16:09.3,00:26,60,0,16:15.0,1661948175,-0.020252275,-0.054187339,-0.016884441,0.1146698,-0.223403931,-0.973571777,26.63693237,-76.30926514,-75.11773682,,,,,,,,
3,16:09.3,00:26,60,0,16:15.0,1661948175,-0.000978978,-0.033195504,0.000707069,0.112640381,-0.231231689,-0.968887329,26.59939575,-76.47554016,-74.9520874,,,,,,,,
3,16:09.3,00:26,60,0,16:15.0,1661948175,-0.004014183,-0.056407083,0.016382169,0.117111206,-0.232009888,-0.965164185,26.59939575,-76.47554016,-74.9520874,,,,,,,,
3,16:09.3,00:26,60,0,16:15.1,1661948175,-0.057468353,-0.183176215,0.03329191,0.123413086,-0.231384277,-0.98109436,26.62019348,-76.52090454,-74.81669617,,,,,,,,
3,16:09.3,00:26,60,0,16:15.1,1661948175,-0.144394996,-0.350471999,0.046500923,0.137054443,-0.239303589,-1.022949219,26.22966003,-76.02896118,-74.97073364,,,,,,,,
3,16:09.3,00:26,60,0,16:15.1,1661948175,-0.214086726,-0.406087325,0.042482746,0.147079468,-0.234924316,-1.033172607,26.09429932,-75.87632751,-74.80900574,,,,,,,,
3,16:09.3,00:26,60,0,16:15.1,1661948175,-0.228421191,-0.344988018,0.071439296,0.135253906,-0.234268188,-0.985916138,25.762146,-75.87875366,-74.45814514,,,,,,,,
3,16:09.3,00:26,60,0,16:15.1,1661948175,-0.207339075,-0.314345953,0.082919385,0.113357544,-0.233413696,-0.938873291,25.7858429,-75.72950745,-74.00382996,,,,,,,,
3,16:09.3,00:26,60,0,16:15.1,1661948175,-0.198946656,-0.34592838,0.08152522,0.110748291,-0.209014893,-0.950622559,25.7858429,-75.72950745,-74.00382996,,,,,,,,
3,16:09.3,00:26,60,0,16:15.2,1661948175,-0.256268269,-0.422281475,0.112408834,0.118713379,-0.214263916,-0.97315979,25.34056091,-75.36750793,-73.91876221,,,,,,,,
3,16:09.3,00:26,60,0,16:15.2,1661948175,-0.368743149,-0.51609452,0.147788663,0.110626221,-0.239089966,-0.979354858,25.11749268,-75.40284729,-73.75111389,,,,,,,,
3,16:09.3,00:26,60,0,16:15.2,1661948175,-0.496614296,-0.547426877,0.142865809,0.095077515,-0.246932983,-0.964263916,24.78013611,-74.99789429,-73.59477234,,,,,,,,
3,16:09.3,00:26,60,0,16:15.2,1661948175,-0.586158028,-0.615349203,0.235620514,0.103057861,-0.22605896,-0.938812256,24.29045105,-73.98098755,-73.16326904,,,,,,,,
3,16:09.3,00:26,60,0,16:15.2,1661948175,-0.669062232,-0.69137393,0.280854838,0.073074341,-0.273040771,-0.951339722,23.96615601,-73.34898376,-72.39355469,,,,,,,,
3,16:09.3,00:26,60,0,16:15.2,1661948175,-0.758819017,-0.857013761,0.306843828,0.061706543,-0.230178833,-0.941101074,23.96615601,-73.34898376,-72.39355469,,,,,,,,
3,16:09.3,00:26,60,0,16:15.3,1661948175,-0.887557289,-1.161487642,0.304535666,0.072036743,-0.185531616,-0.978240967,23.52191162,-72.8526001,-71.5473175,,,,,,,,
3,16:09.3,00:26,60,0,16:15.3,1661948175,-0.761266462,-0.971283612,0.40948472,0.032318115,-0.242111206,-1.04725647,22.70388794,-71.84570313,-70.88690186,,,,,,,,
3,16:09.3,00:26,60,0,16:15.3,1661948175,-0.717385024,-0.828562412,0.533649546,0.064498901,-0.265075684,-0.864730835,22.20344543,-71.11843872,-70.4495697,,,,,,,,
3,16:09.3,00:26,60,0,16:15.3,1661948175,-0.751143787,-0.489831225,0.565109734,-0.014633179,-0.242294312,-0.889724731,21.86752319,-70.05529785,-69.47380066,,,,,,,,
3,16:09.3,00:26,60,0,16:15.3,1661948175,-0.831467921,-0.306009726,0.558876605,0.013137817,-0.217071533,-0.799346924,21.84487915,-69.48764038,-69.34785461,,,,,,,,
3,16:09.3,00:26,60,0,16:15.3,1661948175,-0.816245026,-0.161422183,0.504202174,-0.041931152,-0.184280396,-0.881561279,21.84487915,-69.48764038,-69.34785461,,,,,,,,
3,16:09.3,00:26,60,0,16:15.4,1661948175,-0.754518811,-0.017904698,0.474964927,-0.042907715,-0.167694092,-0.879211426,21.8397522,-68.73731995,-68.49543762,,,,,,,,
3,16:09.3,00:26,60,0,16:15.4,1661948175,-0.717013513,0.115710621,0.460864021,-0.0574646,-0.191192627,-0.880905151,21.86810303,-67.59132385,-68.79414368,,,,,,,,
3,16:09.3,00:26,60,0,16:15.4,1661948175,-0.725665591,0.193898634,0.473123617,-0.081695557,-0.214096069,-0.881820679,22.09025574,-66.7179718,-68.66777039,,,,,,,,
3,16:09.3,00:26,60,0,16:15.4,1661948175,-0.722831188,0.329008519,0.451412729,-0.089035034,-0.203552246,-0.891815186,22.25215149,-66.13290405,-68.54882813,,,,,,,,
3,16:09.3,00:26,60,0,16:15.4,1661948175,-0.674412257,0.605505893,0.409655428,-0.115478516,-0.204605103,-0.876617432,22.82699585,-65.27398682,-68.52175903,,,,,,,,
3,16:09.3,00:26,60,0,16:15.4,1661948175,-0.63209729,0.802232537,0.349340955,-0.121841431,-0.190887451,-0.82434082,22.82699585,-65.27398682,-68.52175903,,,,,,,,
3,16:09.3,00:26,60,0,16:15.5,1661948175,-0.571542067,0.941198413,0.307627863,-0.109405518,-0.148788452,-0.869018555,23.3843689,-64.26325989,-68.34983826,,,,,,,,
3,16:09.3,00:26,60,0,16:15.5,1661948175,-0.544442805,1.020461278,0.335706902,-0.073242188,-0.125549316,-0.888961792,24.04948425,-63.77737427,-69.043396,,,,,,,,
3,16:09.3,00:26,60,0,16:15.5,1661948175,-0.603827569,1.02194892,0.39238909,-0.040359497,-0.134216309,-0.924209595,24.64492798,-62.79754639,-69.50834656,,,,,,,,
3,16:09.3,00:26,60,0,16:15.5,1661948176,-0.735090518,0.941538765,0.467876125,-0.02532959,-0.132507324,-0.99256897,25.4724884,-62.1555481,-69.85121155,,,,,,,,
3,16:09.3,00:26,60,0,16:15.5,1661948176,-1.0166716,0.647480507,0.50449965,-0.000106812,-0.107803345,-1.072814941,26.24923706,-61.44764709,-69.52770996,,,,,,,,
3,16:09.3,00:26,60,0,16:15.5,1661948176,-1.014388472,0.43659783,0.60084616,0.013549805,-0.049407959,-1.209640503,26.24923706,-61.44764709,-69.52770996,,,,,,,,
3,16:09.3,00:26,60,0,16:15.6,1661948176,-0.617663223,0.559800456,0.747688601,0.027511597,-0.030151367,-1.300857544,26.78652954,-60.11459351,-69.19523621,,,,,,,,
3,16:09.3,00:26,60,0,16:15.6,1661948176,-0.266102257,0.696824089,0.821109289,0.025039673,0.028640747,-1.232131958,27.57643127,-59.11921692,-69.58609009,,,,,,,,
3,16:09.3,00:26,60,0,16:15.6,1661948176,-0.178386519,1.003007453,0.601515679,0.032165527,0.033981323,-1.262695313,28.5065918,-58.66702271,-69.80323792,,,,,,,,
3,16:09.3,00:26,60,0,16:15.6,1661948176,-0.078445008,1.214972439,0.44486881,0.045227051,0.25793457,-1.165313721,29.42169189,-58.05990601,-70.38043213,,,,,,,,
3,16:09.3,00:26,60,0,16:15.6,1661948176,0.205890049,1.425527281,0.27752349,0.070648193,0.193511963,-1.234451294,30.47340393,-57.66641235,-70.84240723,,,,,,,,
3,16:09.3,00:26,60,0,16:15.6,1661948176,0.399098125,1.515134928,0.100046174,0.08493042,0.17477417,-1.226104736,30.47340393,-57.66641235,-70.84240723,,,,,,,,
3,16:09.3,00:26,60,0,16:15.7,1661948176,0.479212402,1.549922736,-0.006835536,0.168441772,0.263671875,-1.256912231,31.6129303,-57.68756104,-71.56848145,,,,,,,,
3,16:09.3,00:26,60,0,16:15.7,1661948176,0.465759444,1.647649563,-0.097788878,0.186798096,0.185562134,-1.231170654,32.75062561,-58.3235321,-72.60092163,,,,,,,,
3,16:09.3,00:26,60,0,16:15.7,1661948176,0.482938165,1.637585744,-0.10139107,0.22366333,0.189437866,-1.207214355,34.0131073,-58.40162659,-73.59936523,,,,,,,,
3,16:09.3,00:26,60,0,16:15.7,1661948176,0.444598499,1.434652602,0.02574611,0.313659668,0.149368286,-1.227020264,34.90672302,-58.65921021,-74.34567261,,,,,,,,
3,16:09.3,00:26,60,0,16:15.7,1661948176,0.277721363,1.153963413,0.161116985,0.346496582,0.075637817,-1.301315308,35.96943665,-58.7469635,-74.5556488,,,,,,,,
3,16:09.3,00:26,60,0,16:15.7,1661948176,0.01522183,0.868689325,0.248205282,0.394775391,0.067520142,-1.300033569,35.96943665,-58.7469635,-74.5556488,,,,,,,,
3,16:09.3,00:26,60,0,16:15.8,1661948176,-0.223454662,0.682510397,0.246884887,0.434051514,0.102096558,-1.246505737,36.9148407,-58.62734985,-75.02972412,,,,,,,,
3,16:09.3,00:26,60,0,16:15.8,1661948176,-0.299041032,0.761507744,0.165515728,0.463287354,0.168991089,-1.16468811,37.52133179,-58.42807007,-75.11251831,,,,,,,,
3,16:09.3,00:26,60,0,16:15.8,1661948176,-0.20926747,1.108037733,0.081883681,0.484176636,0.236022949,-1.037780762,38.35794067,-57.87214661,-75.47377014,,,,,,,,
3,16:09.3,00:26,60,0,16:15.8,1661948176,-0.103775665,1.332171767,0.07620236,0.48286438,0.251312256,-0.941329956,39.33326721,-57.89263916,-75.63728333,,,,,,,,
3,16:09.3,00:26,60,0,16:15.8,1661948176,-0.153440157,1.23413841,0.119826004,0.506011963,0.195129395,-0.996582031,40.50102234,-57.6539917,-75.54345703,,,,,,,,
3,16:09.3,00:26,60,0,16:15.8,1661948176,-0.32241613,0.990972628,0.106712332,0.545532227,0.171295166,-1.098251343,41.31077576,-57.49998474,-76.23352051,,,,,,,,
3,16:09.3,00:26,60,0,16:15.9,1661948176,-0.456307086,0.86067614,0.104940265,0.572036743,0.203918457,-1.116714478,41.31077576,-57.49998474,-76.23352051,,,,,,,,
3,16:09.3,00:26,60,0,16:15.9,1661948176,-0.457989139,0.873362108,0.162951104,0.570877075,0.216018677,-1.039169312,42.03256226,-57.0473175,-75.95806885,,,,,,,,
3,16:09.3,00:26,60,0,16:15.9,1661948176,-0.435701943,1.020894574,0.041214815,0.581359863,0.225341797,-0.943023682,42.77204895,-56.40852356,-76.08540344,,,,,,,,
3,16:09.3,00:26,60,0,16:15.9,1661948176,-0.412595558,1.244326067,0.047833036,0.545455933,0.268325806,-0.858718872,43.90332031,-56.26828003,-75.98278809,,,,,,,,
3,16:09.3,00:26,60,0,16:15.9,1661948176,-0.253434132,1.346914228,0.146665608,0.554580688,0.249298096,-0.828903198,45.03590393,-56.15589905,-75.78529358,,,,,,,,
3,16:09.3,00:26,60,0,16:15.9,1661948176,-0.086307725,1.318537447,0.187241264,0.564224243,0.222549438,-0.85723877,46.27763367,-56.0422821,-75.37527466,,,,,,,,
3,16:09.3,00:26,60,0,16:16.0,1661948176,-0.069374015,1.274017916,0.15347824,0.560455322,0.219299316,-0.886566162,46.27763367,-56.0422821,-75.37527466,,,,,,,,
3,16:09.3,00:26,60,0,16:16.0,1661948176,-0.191347858,1.18951182,0.068159081,0.539154053,0.224639893,-0.864242554,47.22183228,-55.90093994,-75.93473816,,,,,,,,
3,16:09.3,00:26,60,0,16:16.0,1661948176,-0.451084894,1.003706266,0.002812032,0.490585327,0.229598999,-0.77897644,48.0561676,-55.33836365,-76.33239746,,,,,,,,
3,16:09.3,00:26,60,0,16:16.0,1661948176,-0.490630706,0.943466361,0.059643623,0.488739014,0.216903687,-0.741012573,48.8913269,-55.27780151,-76.26722717,,,,,,,,
3,16:09.3,00:26,60,0,16:16.0,1661948176,-0.541191351,0.803804069,0.092227133,0.489334106,0.221969604,-0.708267212,49.6499939,-55.09967041,-76.22988892,,,,,,,,
3,16:09.3,00:26,60,0,16:16.0,1661948176,-0.591840148,0.733428705,0.065612033,0.4818573,0.229660034,-0.69581604,50.30502319,-54.55059814,-76.10147095,,,,,,,,
3,16:09.3,00:26,60,0,16:16.1,1661948176,-0.588723717,0.743048576,0.002142247,0.459457397,0.241699219,-0.652206421,50.30502319,-54.55059814,-76.10147095,,,,,,,,
3,16:09.3,00:26,60,0,16:16.1,1661948176,-0.522889043,0.849695927,-0.053654973,0.443939209,0.241851807,-0.596786499,50.980896,-54.0065155,-75.8334198,,,,,,,,
3,16:09.3,00:26,60,0,16:16.1,1661948176,-0.488807239,1.028596436,-0.11595936,0.406570435,0.233108521,-0.534759521,51.55233765,-53.5249939,-75.29008484,,,,,,,,
3,16:09.3,00:26,60,0,16:16.1,1661948176,-0.555763903,1.108529618,-0.124533141,0.402770996,0.217285156,-0.501327515,52.17547607,-53.0519104,-75.21360779,,,,,,,,
3,16:09.3,00:26,60,0,16:16.1,1661948176,-0.647525515,1.051415732,-0.0556598,0.419952393,0.215667725,-0.517044067,53.0705719,-52.75683594,-74.82548523,,,,,,,,
3,16:09.3,00:26,60,0,16:16.1,1661948176,-0.807157521,0.817975548,0.098370779,0.435409546,0.178085327,-0.564529419,53.6078186,-51.95146179,-74.24569702,,,,,,,,
3,16:09.3,00:26,60,0,16:16.2,1661948176,-1.005886064,0.445218216,0.215200727,0.457260132,0.123168945,-0.622879028,53.6078186,-51.95146179,-74.24569702,,,,,,,,
3,16:09.3,00:26,60,0,16:16.2,1661948176,-1.201498974,0.070633157,0.247022306,0.490402222,0.140258789,-0.647918701,54.24482727,-51.62077332,-73.37797546,,,,,,,,
3,16:09.3,00:26,60,0,16:16.2,1661948176,-1.203096338,0.002637861,0.219023162,0.506546021,0.18371582,-0.639526367,54.28407288,-50.38047791,-73.17219543,,,,,,,,
3,16:09.3,00:26,60,0,16:16.2,1661948176,-0.982985542,0.040890442,0.226590268,0.535598755,0.216720581,-0.577590942,54.60110474,-50.06742859,-72.45159912,,,,,,,,
3,16:09.3,00:26,60,0,16:16.2,1661948176,-0.774907706,0.066619774,0.20289346,0.535263062,0.220977783,-0.551483154,54.81132507,-49.41621399,-71.80639648,,,,,,,,
3,16:09.3,00:26,60,0,16:16.2,1661948176,-0.795817781,-0.067365991,0.185715539,0.535186768,0.208969116,-0.575973511,54.76974487,-48.72193909,-71.67752075,,,,,,,,
3,16:09.3,00:26,60,0,16:16.3,1661948176,-0.932071228,-0.195157244,0.197558616,0.534759521,0.175598145,-0.637634277,54.76974487,-48.72193909,-71.67752075,,,,,,,,
3,16:09.3,00:26,60,0,16:16.3,1661948176,-0.984722988,-0.32644789,0.238197922,0.515975952,0.128250122,-0.6434021,54.96850586,-48.40550232,-70.68218994,,,,,,,,
3,16:09.3,00:26,60,0,16:16.3,1661948176,-0.905305127,-0.461076808,0.237361689,0.509796143,0.092773438,-0.641860962,54.78242493,-47.89227295,-69.47618103,,,,,,,,
3,16:09.3,00:26,60,0,16:16.3,1661948176,-0.795175427,-0.491649365,0.163017417,0.518890381,0.104370117,-0.655090332,54.58370972,-47.15682983,-69.85586548,,,,,,,,
3,16:09.3,00:26,60,0,16:16.3,1661948176,-0.627742489,-0.37387,0.084535924,0.524597168,0.144226074,-0.626037598,54.46656799,-46.59559631,-69.60198975,,,,,,,,
3,16:09.3,00:26,60,0,16:16.3,1661948176,-0.428004342,-0.215216972,0.041996452,0.522720337,0.151275635,-0.581848145,54.41427612,-46.53535461,-68.99868774,,,,,,,,
3,16:09.3,00:26,60,0,16:16.4,1661948176,-0.338280581,-0.114718593,0.080717217,0.543319702,0.154678345,-0.570373535,54.41427612,-46.53535461,-68.99868774,,,,,,,,
3,16:09.3,00:26,60,0,16:16.4,1661948176,-0.463437168,-0.047216248,0.166736787,0.597503662,0.135147095,-0.600326538,54.3122406,-46.38201904,-68.41934204,,,,,,,,
3,16:09.3,00:26,60,0,16:16.4,1661948176,-0.764175965,-0.027936294,0.236535576,0.656082153,0.149780273,-0.62638855,54.57867432,-46.11268616,-68.40052795,,,,,,,,
3,16:09.3,00:26,60,0,16:16.4,1661948176,-1.029973557,-0.047609597,0.261970096,0.707138062,0.186508179,-0.661636353,54.60107422,-45.19465637,-68.11830139,,,,,,,,
3,16:09.3,00:26,60,0,16:16.4,1661948176,-1.09534777,-0.079923595,0.230791937,0.720932007,0.233184814,-0.709854126,54.67855835,-44.81089783,-66.89945984,,,,,,,,
3,16:09.3,00:26,60,0,16:16.4,1661948176,-0.984730711,-0.133662724,0.206523881,0.704544067,0.260925293,-0.759902954,54.80032349,-44.30891418,-66.20002747,,,,,,,,
3,16:09.3,00:26,60,0,16:16.5,1661948176,-0.820667471,-0.170339778,0.189948367,0.679428101,0.262023926,-0.800735474,54.80032349,-44.30891418,-66.20002747,,,,,,,,
3,16:09.3,00:26,60,0,16:16.5,1661948176,-0.676372876,-0.145599278,0.165685904,0.647720337,0.253814697,-0.803970337,54.84480286,-43.88212585,-65.21310425,,,,,,,,
3,16:09.3,00:26,60,0,16:16.5,1661948176,-0.592191952,-0.071744761,0.141353666,0.627868652,0.266967773,-0.770599365,54.86183167,-43.57199097,-65.27871704,,,,,,,,
3,16:09.3,00:26,60,0,16:16.5,1661948177,-0.611888158,-0.047907871,0.108020743,0.619934082,0.276596069,-0.744140625,54.8999939,-43.09960938,-64.88218689,,,,,,,,
3,16:09.3,00:26,60,0,16:16.5,1661948177,-0.658581894,-0.14715483,0.042751725,0.621276855,0.268127441,-0.766021729,54.66200256,-42.72895813,-64.35173035,,,,,,,,
3,16:09.3,00:26,60,0,16:16.5,1661948177,-0.519063679,-0.254973173,-0.017989653,0.650558472,0.253753662,-0.848815918,54.69569397,-42.37290955,-63.78656006,,,,,,,,
3,16:09.3,00:26,60,0,16:16.6,1661948177,-0.202332599,-0.279138963,-0.01536857,0.660858154,0.250930786,-0.879684448,54.69569397,-42.37290955,-63.78656006,,,,,,,,
3,16:09.3,00:26,60,0,16:16.6,1661948177,0.08223655,-0.213482189,-0.017528926,0.665176392,0.239746094,-0.856750488,54.55924988,-42.22134399,-63.80484009,,,,,,,,
3,16:09.3,00:26,60,0,16:16.6,1661948177,0.207414975,-0.035603534,-0.052033374,0.676834106,0.255126953,-0.812805176,54.49212646,-42.85198975,-64.25724792,,,,,,,,
3,16:09.3,00:26,60,0,16:16.6,1661948177,0.228303479,0.214396985,-0.113646405,0.67767334,0.288909912,-0.745223999,54.48271179,-42.49061584,-64.21989441,,,,,,,,
3,16:09.3,00:26,60,0,16:16.6,1661948177,0.234733948,0.444144696,-0.181615868,0.699523926,0.332824707,-0.714126587,54.66285706,-42.93504333,-64.69735718,,,,,,,,
3,16:09.3,00:26,60,0,16:16.6,1661948177,0.283700692,0.583513509,-0.210996128,0.744415283,0.384521484,-0.746536255,54.89938354,-42.83059692,-64.5007782,,,,,,,,
3,16:09.3,00:26,60,0,16:16.7,1661948177,0.278127761,0.504525216,-0.205020793,0.77571106,0.388473511,-0.814498901,55.13052368,-43.16891479,-63.90608215,,,,,,,,
3,16:09.3,00:26,60,0,16:16.7,1661948177,0.224485571,0.252900701,-0.117373499,0.791183472,0.356201172,-0.924255371,55.13052368,-43.16891479,-63.90608215,,,,,,,,
3,16:09.3,00:26,60,0,16:16.7,1661948177,0.164554061,-0.08799031,0.045501971,0.779144287,0.29598999,-0.999145508,54.91952515,-43.14793396,-64.9150238,,,,,,,,
3,16:09.3,00:26,60,0,16:16.7,1661948177,0.100290918,-0.42496168,0.24100516,0.746810913,0.235641479,-1.016281128,54.93977356,-43.00152588,-64.96485901,,,,,,,,
3,16:09.3,00:26,60,0,16:16.7,1661948177,0.049060487,-0.729602542,0.461017952,0.657394409,0.213302612,-0.894012451,54.83349609,-42.92694092,-65.48086548,,,,,,,,
3,16:09.3,00:26,60,0,16:16.7,1661948177,0.078919583,-0.694552412,0.470837826,0.610321045,0.237518311,-0.805953979,54.85888672,-43.08613586,-64.91500854,,,,,,,,
3,16:09.3,00:26,60,0,16:16.8,1661948177,0.15913,-0.71085442,0.395181148,0.596923828,0.281478882,-0.76574707,54.74136353,-43.2644043,-65.26890564,,,,,,,,
3,16:09.3,00:26,60,0,16:16.8,1661948177,0.297153384,-0.784035956,0.347885804,0.598144531,0.342697144,-0.804992676,54.74136353,-43.2644043,-65.26890564,,,,,,,,
3,16:09.3,00:26,60,0,16:16.8,1661948177,0.43246993,-0.839365259,0.38284432,0.579208374,0.337310791,-0.831314087,54.59783936,-43.19871521,-65.43585205,,,,,,,,
3,16:09.3,00:26,60,0,16:16.8,1661948177,0.45857104,-0.798357904,0.468326199,0.552642822,0.302856445,-0.818115234,54.4584198,-43.61279297,-65.61392212,,,,,,,,
3,16:09.3,00:26,60,0,16:16.8,1661948177,0.372063844,-0.74556766,0.576726443,0.530227661,0.2706604,-0.7840271,54.45449829,-43.71180725,-66.21516418,,,,,,,,
3,16:09.3,00:26,60,0,16:16.8,1661948177,0.220582176,-0.764743219,0.651920263,0.527877808,0.257171631,-0.805389404,54.46142578,-44.06848145,-66.64219666,,,,,,,,
3,16:09.3,00:26,60,0,16:16.9,1661948177,0.118423051,-0.953354945,0.646676499,0.541824341,0.266952515,-0.881668091,54.34597778,-44.02403259,-66.85882568,,,,,,,,
3,16:09.3,00:26,60,0,16:16.9,1661948177,0.179505047,-1.17086623,0.625528603,0.569107056,0.315795898,-0.99319458,54.34597778,-44.02403259,-66.85882568,,,,,,,,
3,16:09.3,00:26,60,0,16:16.9,1661948177,0.336041395,-1.357088835,0.620262468,0.568664551,0.337249756,-1.035491943,54.13122559,-44.16221619,-66.99409485,,,,,,,,
3,16:09.3,00:26,60,0,16:16.9,1661948177,0.478411323,-1.440658297,0.656527266,0.565582275,0.341796875,-1.032684326,53.88374329,-44.63780212,-67.0730896,,,,,,,,
3,16:09.3,00:26,60,0,16:16.9,1661948177,0.571845667,-1.437550921,0.7301405,0.546142578,0.320999146,-0.974716187,53.51672363,-44.52204895,-67.72200012,,,,,,,,
3,16:09.3,00:26,60,0,16:16.9,1661948177,0.576437223,-1.425338729,0.803040008,0.504226685,0.276916504,-0.896408081,53.28475952,-44.99035645,-68.17178345,,,,,,,,
3,16:09.3,00:26,60,0,16:17.0,1661948177,0.516408241,-1.398805655,0.816103612,0.473205566,0.255706787,-0.85206604,53.08366394,-45.20932007,-68.45062256,,,,,,,,
3,16:09.3,00:26,60,0,16:17.0,1661948177,0.408142753,-1.338848312,0.806249383,0.451431274,0.265182495,-0.819641113,53.08366394,-45.20932007,-68.45062256,,,,,,,,
3,16:09.3,00:26,60,0,16:17.0,1661948177,0.333446144,-1.235080104,0.823171641,0.416000366,0.249755859,-0.791793823,52.75,-45.38258362,-68.81900024,,,,,,,,
3,16:09.3,00:26,60,0,16:17.0,1661948177,0.369860345,-1.16304426,0.856845715,0.390029907,0.226364136,-0.786148071,52.65208435,-46.01567078,-69.10177612,,,,,,,,
3,16:09.3,00:26,60,0,16:17.0,1661948177,0.458387282,-1.137831315,0.866334026,0.382400513,0.211288452,-0.81022644,52.49060059,-46.02151489,-69.54823303,,,,,,,,
3,16:09.3,00:26,60,0,16:17.0,1661948177,0.469575488,-1.136423834,0.85294232,0.370315552,0.207382202,-0.8072052,52.42327881,-46.53036499,-69.5556488,,,,,,,,
3,16:09.3,00:26,60,0,16:17.1,1661948177,0.319099429,-1.197084518,0.838415575,0.351760864,0.200180054,-0.772888184,52.24571228,-46.67938232,-69.96273804,,,,,,,,
3,16:09.3,00:26,60,0,16:17.1,1661948177,0.041206559,-1.316910522,0.85250423,0.333389282,0.175674438,-0.76184082,52.24571228,-46.67938232,-69.96273804,,,,,,,,
3,16:09.3,00:26,60,0,16:17.1,1661948177,-0.064862354,-1.215333563,0.816974732,0.298324585,0.156204224,-0.790603638,52.03755188,-46.67051697,-69.63713074,,,,,,,,
3,16:09.3,00:26,60,0,16:17.1,1661948177,-0.227339681,-1.088519691,0.856966357,0.317443848,0.124282837,-0.689987183,51.76516724,-46.56185913,-70.01789856,,,,,,,,
3,16:09.3,00:26,60,0,16:17.1,1661948177,-0.217255089,-0.976900751,0.818078346,0.272079468,0.115890503,-0.726654053,51.66444397,-46.33926392,-70.03224182,,,,,,,,
3,16:09.3,00:26,60,0,16:17.1,1661948177,-0.1061544,-0.844508888,0.729198806,0.282363892,0.150924683,-0.773086548,51.58074951,-46.03178406,-69.71403503,,,,,,,,
3,16:09.3,00:26,60,0,16:17.2,1661948177,0.020113258,-0.703926473,0.627000799,0.274688721,0.16960144,-0.797805786,51.76605225,-46.30371094,-69.49526978,,,,,,,,
3,16:09.3,00:26,60,0,16:17.2,1661948177,0.12961392,-0.659061796,0.664864558,0.270568848,0.171340942,-0.812973022,51.76605225,-46.30371094,-69.49526978,,,,,,,,
3,16:09.3,00:26,60,0,16:17.2,1661948177,0.120312031,-0.610736608,0.563548855,0.255111694,0.083145142,-0.863723755,51.74821472,-46.65176392,-69.23628235,,,,,,,,
3,16:09.3,00:26,60,0,16:17.2,1661948177,0.141770717,-0.430014496,0.499339775,0.247619629,0.19102478,-0.896057129,51.72494507,-46.27392578,-69.57498169,,,,,,,,
3,16:09.3,00:26,60,0,16:17.2,1661948177,0.049940928,-0.429883735,0.329712925,0.346847534,0.118103027,-0.857406616,51.76264954,-46.39398193,-69.97633362,,,,,,,,
3,16:09.3,00:26,60,0,16:17.2,1661948177,-0.001569667,-0.43625375,0.284680469,0.243515015,0.175003052,-0.932556152,51.59967041,-46.54841614,-69.80154419,,,,,,,,
3,16:09.3,00:26,60,0,16:17.3,1661948177,-0.007069095,-0.515578133,0.282710795,0.296295166,0.116409302,-0.965652466,51.58041382,-46.78903198,-69.66368103,,,,,,,,
3,16:09.3,00:26,60,0,16:17.3,1661948177,0.115317538,-0.469523822,0.199728027,0.284484863,0.086074829,-1.032836914,51.58041382,-46.78903198,-69.66368103,,,,,,,,
3,16:09.3,00:26,60,0,16:17.3,1661948177,0.206625881,-0.49981728,0.188162984,0.317016602,0.103973389,-0.986785889,51.40864563,-46.56138611,-69.80982971,,,,,,,,
3,16:09.3,00:26,60,0,16:17.3,1661948177,0.284902577,-0.525555933,0.272680798,0.307281494,0.082443237,-1.018600464,51.39425659,-46.93251038,-70.2016449,,,,,,,,
3,16:09.3,00:26,60,0,16:17.3,1661948177,0.208395817,-0.418487802,0.297707055,0.285293579,0.034912109,-1.045562744,51.26377869,-46.89761353,-70.45056152,,,,,,,,
3,16:09.3,00:26,60,0,16:17.3,1661948177,0.024257136,-0.499478259,0.228237965,0.335723877,0.006958008,-1.067779541,50.92764282,-46.81712341,-70.5393219,,,,,,,,
3,16:09.3,00:26,60,0,16:17.4,1661948177,-0.075899558,-0.736062305,0.170862024,0.348495483,0.030532837,-1.173492432,50.67289734,-46.88053894,-70.28860474,,,,,,,,
3,16:09.3,00:26,60,0,16:17.4,1661948177,0.054653925,-0.865165431,0.162903167,0.342300415,0.051010132,-1.224014282,50.67289734,-46.88053894,-70.28860474,,,,,,,,
3,16:09.3,00:26,60,0,16:17.4,1661948177,0.264199961,-0.953769865,0.195499992,0.334030151,0.047454834,-1.187728882,50.11100769,-46.91671753,-69.83940125,,,,,,,,
3,16:09.3,00:26,60,0,16:17.4,1661948177,0.243333828,-0.979632622,0.233928075,0.305740356,0.011978149,-1.155975342,49.82093811,-47.2354126,-70.08735657,,,,,,,,
3,16:09.3,00:26,60,0,16:17.4,1661948177,0.050386742,-0.948608926,0.279664139,0.283279419,-0.025634766,-1.117874146,49.35900879,-46.99259949,-70.60932922,,,,,,,,
3,16:09.3,00:26,60,0,16:17.4,1661948177,-0.085939676,-0.586967096,0.430438205,0.216323853,-0.063095093,-1.002624512,49.15937805,-46.94616699,-70.44778442,,,,,,,,
3,16:09.3,00:26,60,0,16:17.5,1661948177,0.186002894,-0.369239029,0.590591924,0.190841675,-0.039352417,-0.996627808,49.18049622,-47.18623352,-70.3381958,,,,,,,,
3,16:09.3,00:26,60,0,16:17.5,1661948177,0.518180042,-0.110789632,0.604950357,0.177398682,-0.012680054,-0.988525391,49.18049622,-47.18623352,-70.3381958,,,,,,,,
3,16:09.3,00:26,60,0,16:17.5,1661948177,0.803718847,0.017177123,0.504617095,0.162414551,-0.006515503,-1.043319702,49.35067749,-47.00759888,-70.35949707,,,,,,,,
3,16:09.3,00:26,60,0,16:17.5,1661948178,0.827128033,0.390474277,0.215714184,0.177703857,0.029159546,-1.025817871,49.6361084,-47.71620178,-71.13331604,,,,,,,,
3,16:09.3,00:26,60,0,16:17.5,1661948178,0.651910676,0.267964339,-0.02344141,0.216995239,0.072387695,-0.966430664,50.1254425,-48.09683228,-71.9695282,,,,,,,,
3,16:09.3,00:26,60,0,16:17.5,1661948178,0.403959459,-0.124229541,0.010800183,0.203659058,0.054946899,-1.145584106,50.37922668,-48.53994751,-71.99737549,,,,,,,,
3,16:09.3,00:26,60,0,16:17.6,1661948178,0.25835885,-0.329529433,0.050987817,0.161346436,-0.012329102,-1.266830444,50.18005371,-49.00978088,-72.36206055,,,,,,,,
3,16:09.3,00:26,60,0,16:17.6,1661948178,0.322427582,-0.471506546,0.053941263,0.179550171,-0.031066895,-1.25769043,49.94343567,-49.18589783,-72.44204712,,,,,,,,
3,16:09.3,00:26,60,0,16:17.6,1661948178,0.54209869,-0.616460007,0.069980949,0.192855835,-0.01335144,-1.247848511,49.94343567,-49.18589783,-72.44204712,,,,,,,,
3,16:09.3,00:26,60,0,16:17.6,1661948178,0.776511727,-0.711255492,0.061905978,0.190170288,0.016647339,-1.212936401,49.7387085,-49.5619812,-72.99079895,,,,,,,,
3,16:09.3,00:26,60,0,16:17.6,1661948178,0.852064809,-0.736351791,0.064032246,0.174530029,0.035354614,-1.129379272,49.26559448,-49.83294678,-73.616745,,,,,,,,
3,16:09.3,00:26,60,0,16:17.6,1661948178,0.791337812,-0.803250664,0.118255005,0.161270142,-0.000564575,-1.070129395,48.8145752,-50.63047791,-74.01171875,,,,,,,,
3,16:09.3,00:26,60,0,16:17.7,1661948178,0.643317987,-0.920151984,0.097458646,0.129806519,-0.049407959,-1.034881592,48.52124023,-51.53683472,-74.31880188,,,,,,,,
3,16:09.3,00:26,60,0,16:17.7,1661948178,0.490547615,-1.015326171,-0.039641419,0.105834961,-0.038482666,-0.968139648,47.79013062,-51.52130127,-74.44482422,,,,,,,,
3,16:09.3,00:26,60,0,16:17.7,1661948178,0.351508768,-0.951954921,-0.131288249,0.094970703,0.005981445,-0.87739563,47.79013062,-51.52130127,-74.44482422,,,,,,,,
3,16:09.3,00:26,60,0,16:17.7,1661948178,0.152667574,-0.784816263,-0.047070307,0.089172363,-0.008377075,-0.779937744,47.15351868,-51.91842651,-74.41763306,,,,,,,,
3,16:09.3,00:26,60,0,16:17.7,1661948178,-0.045698246,-0.446129017,0.119098428,0.076309204,-0.08795166,-0.764556885,46.67929077,-52.30949402,-74.63218689,,,,,,,,
3,16:09.3,00:26,60,0,16:17.7,1661948178,-0.062685219,-0.228554349,0.188425305,0.05796814,-0.12928772,-0.738296509,46.51501465,-52.01525879,-74.6456604,,,,,,,,
3,16:09.3,00:26,60,0,16:17.8,1661948178,0.064939053,-0.226644596,0.126809345,0.033950806,-0.091964722,-0.779891968,46.45687866,-52.08297729,-74.58456421,,,,,,,,
3,16:09.3,00:26,60,0,16:17.8,1661948178,0.107219664,-0.377771797,0.024893898,0.062454224,-0.011688232,-0.820114136,46.26309204,-51.90878296,-74.27890015,,,,,,,,
3,16:09.3,00:26,60,0,16:17.8,1661948178,-0.081165161,-0.349940166,-0.125713987,0.092269897,-0.005783081,-0.852645874,46.26309204,-51.90878296,-74.27890015,,,,,,,,
3,16:09.3,00:26,60,0,16:17.8,1661948178,-0.36593165,-0.010491789,-0.19455963,0.054092407,-0.017105103,-0.858047485,46.01985168,-52.08099365,-74.14859009,,,,,,,,
3,16:09.3,00:26,60,0,16:17.8,1661948178,-0.504496454,0.293026017,-0.32117057,0.068740845,-0.057296753,-0.840805054,45.99902344,-51.59225464,-74.21775818,,,,,,,,
3,16:09.3,00:26,60,0,16:17.8,1661948178,-0.462873376,0.280239382,-0.431921586,0.101577759,-0.016799927,-0.888656616,46.11325073,-51.37834167,-74.35636902,,,,,,,,
3,16:09.3,00:26,60,0,16:17.9,1661948178,-0.268071931,0.223435753,-0.34706555,0.092636108,0.022583008,-0.916351318,46.11947632,-51.19142151,-74.17323303,,,,,,,,
3,16:09.3,00:26,60,0,16:17.9,1661948178,-0.058476626,-0.150569269,-0.174947313,0.125137329,-0.019729614,-0.854751587,45.77583313,-51.07562256,-74.04022217,,,,,,,,
3,16:09.3,00:26,60,0,16:17.9,1661948178,0.04277303,-0.192796085,0.049072738,0.064559937,-0.125015259,-0.921463013,45.77583313,-51.07562256,-74.04022217,,,,,,,,
3,16:09.3,00:26,60,0,16:17.9,1661948178,-0.098598746,0.103759686,0.203122226,0.048217773,-0.195678711,-0.950256348,45.77314758,-50.90429688,-73.79197693,,,,,,,,
3,16:09.3,00:26,60,0,16:17.9,1661948178,-0.09297335,0.259331436,0.092696648,0.067352295,-0.082397461,-0.980377197,46.26239014,-51.01451111,-73.86973572,,,,,,,,
3,16:09.3,00:26,60,0,16:17.9,1661948178,0.120056634,0.070434219,-0.134481646,0.08354187,0.006378174,-0.992294312,46.22062683,-50.91123962,-74.07249451,,,,,,,,
3,16:09.3,00:26,60,0,16:18.0,1661948178,0.339219611,-0.171928087,-0.274675772,0.119415283,0.027297974,-0.984237671,46.16313171,-51.5565033,-74.35089111,,,,,,,,
3,16:09.3,00:26,60,0,16:18.0,1661948178,0.530990113,-0.224458407,-0.1931897,0.130599976,-0.015029907,-0.921417236,45.88858032,-51.62002563,-74.34425354,,,,,,,,
3,16:09.3,00:26,60,0,16:18.0,1661948178,0.582006159,-0.148088535,0.039958335,0.102615356,-0.117858887,-0.901550293,45.88858032,-51.62002563,-74.34425354,,,,,,,,
3,16:09.3,00:26,60,0,16:18.0,1661948178,0.589170063,-0.103709884,0.247624447,0.083374023,-0.163421631,-0.931762695,45.8691864,-52.15428162,-74.82151794,,,,,,,,
3,16:09.3,00:26,60,0,16:18.0,1661948178,0.576069174,-0.192654937,0.261132799,0.074951172,-0.159393311,-0.968658447,45.84713745,-52.58900452,-75.11006165,,,,,,,,
3,16:09.3,00:26,60,0,16:18.0,1661948178,0.485712113,-0.315894048,0.149934904,0.080856323,-0.111373901,-0.963302612,45.8190918,-53.10693359,-75.51986694,,,,,,,,
3,16:09.3,00:26,60,0,16:18.1,1661948178,0.307196963,-0.395759586,0.058266503,0.080825806,-0.081634521,-0.919433594,45.55944824,-53.25068665,-75.6151123,,,,,,,,
3,16:09.3,00:26,60,0,16:18.1,1661948178,0.111699101,-0.386445979,0.064029583,0.055648804,-0.115432739,-0.880065918,45.40562439,-53.18571472,-75.32145691,,,,,,,,
3,16:09.3,00:26,60,0,16:18.1,1661948178,-0.034560108,-0.330764075,0.123681462,0.024841309,-0.160430908,-0.856658936,45.40562439,-53.18571472,-75.32145691,,,,,,,,
3,16:09.3,00:26,60,0,16:18.1,1661948178,-0.084285853,-0.266280423,0.16999916,0.004119873,-0.184661865,-0.853057861,45.34599304,-53.17428589,-74.61029053,,,,,,,,
3,16:09.3,00:26,60,0,16:18.1,1661948178,-0.074041737,-0.186193842,0.208946825,0.001022339,-0.171829224,-0.852508545,45.1554718,-53.03855896,-75.31578064,,,,,,,,
3,16:09.3,00:26,60,0,16:18.1,1661948178,-0.027613252,-0.071457672,0.260163941,0.000305176,-0.155227661,-0.854644775,45.2311554,-52.93768311,-75.53062439,,,,,,,,
3,16:09.3,00:26,60,0,16:18.2,1661948178,-0.065713766,0.021162543,0.324803654,-0.011276245,-0.145050049,-0.919647217,45.58691406,-53.01243591,-75.45692444,,,,,,,,
3,16:09.3,00:26,60,0,16:18.2,1661948178,-0.147900249,-0.063033827,0.306245948,-0.017745972,-0.137237549,-0.97203064,45.53811646,-52.94927979,-75.66760254,,,,,,,,
3,16:09.3,00:26,60,0,16:18.2,1661948178,-0.16127491,-0.168150127,0.221132652,-0.027984619,-0.124191284,-1.022338867,45.53811646,-52.94927979,-75.66760254,,,,,,,,
3,16:09.3,00:26,60,0,16:18.2,1661948178,-0.116403309,-0.230491532,0.122844697,-0.037124634,-0.097763062,-1.034408569,45.66192627,-52.87478638,-74.85232544,,,,,,,,
3,16:09.3,00:26,60,0,16:18.2,1661948178,-0.040467265,-0.189257543,0.045744319,-0.047348022,-0.08972168,-1.008880615,45.53533936,-52.3711853,-75.14587402,,,,,,,,
3,16:09.3,00:26,60,0,16:18.2,1661948178,0.000491353,-0.087897099,0.036274917,-0.052383423,-0.09538269,-0.966827393,45.43765259,-52.41012573,-75.03079224,,,,,,,,
3,16:09.3,00:26,60,0,16:18.3,1661948178,-0.021475997,-0.033281258,0.075532575,-0.063705444,-0.132553101,-0.942977905,45.56498718,-52.39445496,-75.16390991,,,,,,,,
3,16:09.3,00:26,60,0,16:18.3,1661948178,-0.017864751,-0.028739503,0.079621859,-0.06829834,-0.156021118,-0.957382202,45.56344604,-52.7913208,-74.77194214,,,,,,,,
3,16:09.3,00:26,60,0,16:18.3,1661948178,-0.02848304,0.014565893,0.037605432,-0.058364868,-0.138244629,-0.976867676,45.56344604,-52.7913208,-74.77194214,,,,,,,,
3,16:09.3,00:26,60,0,16:18.3,1661948178,-0.001834385,-0.033623474,-0.014299843,-0.042190552,-0.106201172,-0.973983765,45.49598694,-52.33096313,-74.76828003,,,,,,,,
3,16:09.3,00:26,60,0,16:18.3,1661948178,-0.01075704,-0.006794523,-0.067020579,-0.051055908,-0.113128662,-0.999603271,45.39897156,-52.50152588,-74.77874756,,,,,,,,
3,16:09.3,00:26,60,0,16:18.3,1661948178,-0.024634506,0.088942656,-0.101183344,-0.065032959,-0.123657227,-0.977752686,45.52433777,-52.35498047,-75.28231812,,,,,,,,
3,16:09.3,00:26,60,0,16:18.4,1661948178,0.011061173,0.1750842,-0.070931431,-0.069168091,-0.123260498,-0.980194092,45.52804565,-52.63833618,-74.95687866,,,,,,,,
3,16:09.3,00:26,60,0,16:18.4,1661948178,0.018464228,0.227827572,-0.119287513,-0.049057007,-0.135665894,-0.987625122,45.69078064,-52.59739685,-74.92338562,,,,,,,,
3,16:09.3,00:26,60,0,16:18.4,1661948178,-0.105770106,0.460349499,-0.31981076,-0.045410156,-0.125061035,-0.985626221,45.84889221,-52.67030334,-74.86883545,,,,,,,,
3,16:09.3,00:26,60,0,16:18.4,1661948178,-0.135086716,0.805955636,-0.499206617,-0.019958496,-0.032546997,-0.926437378,45.84889221,-52.67030334,-74.86883545,,,,,,,,
3,16:09.3,00:26,60,0,16:18.4,1661948178,-0.049940129,0.696677349,-0.447191086,-0.027877808,-0.096893311,-0.929901123,46.16667175,-52.63020325,-74.87335205,,,,,,,,
3,16:09.3,00:26,60,0,16:18.4,1661948178,-0.008150605,0.543125339,-0.287151616,-0.038757324,-0.161392212,-1.033981323,46.31228638,-52.71351624,-75.41137695,,,,,,,,
3,16:09.3,00:26,60,0,16:18.5,1661948178,-0.043789293,0.45138663,-0.193588109,-0.005050659,-0.181304932,-1.056030273,46.53936768,-52.4959259,-75.24957275,,,,,,,,
3,16:09.3,00:26,60,0,16:18.5,1661948178,-0.124752053,0.42350866,-0.137253197,0.019821167,-0.163024902,-1.038452148,46.8812561,-52.43359375,-75.00241089,,,,,,,,
3,16:09.3,00:26,60,0,16:18.5,1661948178,-0.217228457,0.419589818,-0.082263448,0.019699097,-0.161148071,-1.028381348,47.2665863,-52.42250061,-75.01469421,,,,,,,,
3,16:09.3,00:26,60,0,16:18.5,1661948179,-0.282770982,0.393741177,0.006501575,0.026000977,-0.162490845,-1.003067017,47.2665863,-52.42250061,-75.01469421,,,,,,,,
3,16:09.3,00:26,60,0,16:18.5,1661948179,-0.275314131,0.31590843,0.177440032,0.052536011,-0.149520874,-1.002593994,47.52885437,-52.20697021,-74.63604736,,,,,,,,
3,16:09.3,00:26,60,0,16:18.5,1661948179,-0.255067716,0.222895931,0.267604813,0.050094604,-0.177871704,-1.034332275,47.84356689,-51.90975952,-74.92643738,,,,,,,,
3,16:09.3,00:26,60,0,16:18.6,1661948179,-0.204023173,0.135147702,0.263508605,0.063995361,-0.127746582,-1.020874023,48.04821777,-51.75834656,-74.6388855,,,,,,,,
3,16:09.3,00:26,60,0,16:18.6,1661948179,0.037191844,-0.083580381,0.20900648,0.065093994,-0.107940674,-1.006607056,48.24055481,-51.89974976,-74.78637695,,,,,,,,
3,16:09.3,00:26,60,0,16:18.6,1661948179,0.347827214,-0.312440994,0.180535424,0.056381226,-0.062637329,-1.032943726,48.07350159,-52.12779236,-74.70962524,,,,,,,,
3,16:09.3,00:26,60,0,16:18.6,1661948179,0.581725462,-0.537195811,0.167721358,0.068832397,-0.080841064,-1.038253784,48.07350159,-52.12779236,-74.70962524,,,,,,,,
3,16:09.3,00:26,60,0,16:18.6,1661948179,0.617535391,-0.499506755,0.279012463,0.036804199,-0.11088562,-1.053634644,47.79133606,-52.48768616,-75.07098389,,,,,,,,
3,16:09.3,00:26,60,0,16:18.6,1661948179,0.442360644,-0.135363418,0.403810056,0.031234741,-0.148803711,-0.981933594,47.95674133,-52.88084412,-75.43728638,,,,,,,,
3,16:09.3,00:26,60,0,16:18.7,1661948179,0.213923741,0.239684498,0.391809852,0.02444458,-0.16835022,-0.920303345,48.29023743,-53.24607849,-75.57608032,,,,,,,,
3,16:09.3,00:26,60,0,16:18.7,1661948179,0.151453172,0.379559045,0.154299026,0.042800903,-0.152023315,-0.909484863,48.44290161,-52.99902344,-75.82658386,,,,,,,,
3,16:09.3,00:26,60,0,16:18.7,1661948179,0.161085027,0.324776223,-0.004372911,0.066421509,-0.05241394,-0.941925049,48.59907532,-53.00364685,-75.83256531,,,,,,,,
3,16:09.3,00:26,60,0,16:18.7,1661948179,0.138287835,0.254549731,-0.052959621,0.056747437,-0.057342529,-1.018112183,48.59907532,-53.00364685,-75.83256531,,,,,,,,
3,16:09.3,00:26,60,0,16:18.7,1661948179,0.089582347,0.223555329,-0.044011666,0.03352356,-0.119766235,-1.035949707,48.85093689,-53.24794006,-75.95481873,,,,,,,,
3,16:09.3,00:26,60,0,16:18.7,1661948179,0.076060147,0.249329136,0.037205692,0.034103394,-0.139373779,-1.011581421,48.91264343,-53.04631042,-75.96269226,,,,,,,,
3,16:09.3,00:26,60,0,16:18.8,1661948179,0.112173144,0.331780603,0.075632177,0.046539307,-0.134689331,-0.98614502,49.3555603,-53.54348755,-76.1794281,,,,,,,,
3,16:09.3,00:26,60,0,16:18.8,1661948179,0.082924711,0.269344922,0.134446226,0.061813354,-0.119659424,-0.96812439,49.6668396,-53.69831848,-76.09936523,,,,,,,,
3,16:09.3,00:26,60,0,16:18.8,1661948179,-0.007385212,0.120328809,0.061125672,0.057662964,-0.102478027,-0.998184204,49.62678528,-53.7979126,-76.12886047,,,,,,,,
3,16:09.3,00:26,60,0,16:18.8,1661948179,-0.169640965,0.004327104,-0.062207981,0.063369751,-0.120452881,-1.01600647,49.62678528,-53.7979126,-76.12886047,,,,,,,,
3,16:09.3,00:26,60,0,16:18.8,1661948179,-0.237383793,-0.089412171,-0.158753429,0.061798096,-0.068908691,-0.998062134,49.55004883,-53.26812744,-76.15716553,,,,,,,,
3,16:09.3,00:26,60,0,16:18.8,1661948179,-0.14981879,-0.154208745,-0.250060706,0.077148438,-0.07232666,-1.008666992,49.29663086,-53.29222107,-76.09683228,,,,,,,,
3,16:09.3,00:26,60,0,16:18.9,1661948179,0.022397984,-0.168824706,-0.257760438,0.07194519,-0.11088562,-1.015075684,49.08862305,-53.28173828,-76.12634277,,,,,,,,
3,16:09.3,00:26,60,0,16:18.9,1661948179,0.181580715,-0.166082182,-0.16207812,0.063079834,-0.222335815,-1.00958252,49.1222229,-53.46505737,-75.80961609,,,,,,,,
3,16:09.3,00:26,60,0,16:18.9,1661948179,0.136281676,0.016511066,0.071660871,0.045700073,-0.255172729,-0.981796265,48.85858154,-53.38720703,-76.27946472,,,,,,,,
3,16:09.3,00:26,60,0,16:18.9,1661948179,0.0660171,-0.047535828,0.00360885,0.059265137,-0.157531738,-0.970077515,48.85858154,-53.38720703,-76.27946472,,,,,,,,
3,16:09.3,00:26,60,0,16:18.9,1661948179,0.064367272,-0.111410415,-0.051250937,0.081100464,-0.11390686,-1.016967773,49.11642456,-53.68417358,-75.87384033,,,,,,,,
3,16:09.3,00:26,60,0,16:18.9,1661948179,0.081034932,-0.187911848,-0.042474224,0.087005615,-0.107543945,-1.027633667,48.96789551,-53.63757324,-76.1834259,,,,,,,,
3,16:09.3,00:26,60,0,16:19.0,1661948179,0.076260417,-0.219683626,0.00817191,0.092971802,-0.140991211,-1.022888184,48.72994995,-53.80130005,-76.16793823,,,,,,,,
3,16:09.3,00:26,60,0,16:19.0,1661948179,0.109285745,-0.13416686,0.040699759,0.088500977,-0.161254883,-1.001205444,48.76464844,-53.79902649,-76.36724854,,,,,,,,
3,16:09.3,00:26,60,0,16:19.0,1661948179,0.168987957,-0.060950436,0.059968795,0.073226929,-0.155807495,-0.972595215,48.60594177,-53.73445129,-76.31468201,,,,,,,,
3,16:09.3,00:26,60,0,16:19.0,1661948179,0.190571014,-0.064583521,0.112118283,0.072463989,-0.151184082,-0.978012085,48.60594177,-53.73445129,-76.31468201,,,,,,,,
3,16:09.3,00:26,60,0,16:19.0,1661948179,0.16079634,-0.111649833,0.192324439,0.078933716,-0.166519165,-1.000076294,48.66038513,-54.11616516,-76.09329224,,,,,,,,
3,16:09.3,00:26,60,0,16:19.0,1661948179,0.093797333,-0.116356171,0.252790446,0.078735352,-0.185958862,-1.010192871,48.58918762,-54.0774231,-76.53504944,,,,,,,,
3,16:09.3,00:26,60,0,16:19.1,1661948179,0.029434588,-0.183989544,0.256473066,0.071777344,-0.184341431,-0.99760437,48.57516479,-54.13948059,-76.71704102,,,,,,,,
3,16:09.3,00:26,60,0,16:19.1,1661948179,0.005701562,-0.161929515,0.205197095,0.057235718,-0.164413452,-1.009674072,48.76164246,-54.08123779,-76.48590088,,,,,,,,
3,16:09.3,00:26,60,0,16:19.1,1661948179,0.019950805,-0.084156423,0.153938967,0.049240112,-0.141204834,-0.986785889,48.66661072,-54.30317688,-76.28530884,,,,,,,,
3,16:09.3,00:26,60,0,16:19.1,1661948179,0.069723155,0.026953587,0.143252234,0.037506104,-0.134231567,-0.966003418,48.66661072,-54.30317688,-76.28530884,,,,,,,,
3,16:09.3,00:26,60,0,16:19.1,1661948179,0.162611018,0.134472325,0.175866104,0.040100098,-0.148376465,-0.947845459,48.95036316,-54.37463379,-75.92269897,,,,,,,,
3,16:09.3,00:26,60,0,16:19.1,1661948179,0.244419066,0.271011262,0.227705067,0.034790039,-0.160995483,-0.950332642,48.9854126,-54.25991821,-76.5566864,,,,,,,,
3,16:09.3,00:26,60,0,16:19.2,1661948179,0.210055766,0.341246543,0.252639179,0.039642334,-0.172454834,-0.945785522,49.51582336,-54.75622559,-76.59875488,,,,,,,,
3,16:09.3,00:26,60,0,16:19.2,1661948179,0.132831551,0.313334484,0.261729613,0.037750244,-0.176269531,-0.947570801,49.87008667,-54.54907227,-76.6600647,,,,,,,,
3,16:09.3,00:26,60,0,16:19.2,1661948179,0.073617496,0.220869798,0.255253338,0.056900024,-0.180023193,-0.96661377,50.18443298,-55.14877319,-76.63598633,,,,,,,,
3,16:09.3,00:26,60,0,16:19.2,1661948179,0.032034099,0.133509325,0.215787421,0.064285278,-0.170684814,-0.996276855,50.18443298,-55.14877319,-76.63598633,,,,,,,,
3,16:09.3,00:26,60,0,16:19.2,1661948179,-0.024176176,0.062247129,0.187377617,0.060821533,-0.162017822,-1.001022339,50.28863525,-54.75645447,-76.49043274,,,,,,,,
3,16:09.3,00:26,60,0,16:19.2,1661948179,-0.158649566,0.037403565,0.266516379,0.062469482,-0.164642334,-0.994155884,50.48686218,-55.00250244,-77.00883484,,,,,,,,
3,16:09.3,00:26,60,0,16:19.3,1661948179,-0.107229784,0.015664447,0.227764189,0.086715698,-0.174987793,-0.976379395,50.52037048,-54.46781921,-76.66984558,,,,,,,,
3,16:09.3,00:26,60,0,16:19.3,1661948179,-0.069862439,0.071232369,0.21714803,0.05027771,-0.171386719,-1.004974365,50.57643127,-54.210495,-77.11979675,,,,,,,,
3,16:09.3,00:26,60,0,16:19.3,1661948179,-0.012703012,0.069009961,0.208351343,0.058898926,-0.174026489,-0.977630615,50.99195862,-54.55845642,-76.73049927,,,,,,,,
3,16:09.3,00:26,60,0,16:19.3,1661948179,0.018660237,0.067065054,0.171089991,0.061233521,-0.159759521,-0.992080688,50.99195862,-54.55845642,-76.73049927,,,,,,,,
3,16:09.3,00:26,60,0,16:19.3,1661948179,0.054379885,0.087383375,0.147669087,0.066146851,-0.157226563,-0.986465454,51.17893982,-54.9281311,-76.53363037,,,,,,,,
3,16:09.3,00:26,60,0,16:19.3,1661948179,0.089687542,0.056554889,0.088085917,0.065811157,-0.157028198,-0.984512329,51.10827637,-54.58596802,-76.89097595,,,,,,,,
3,16:09.3,00:26,60,0,16:19.4,1661948179,0.067189157,0.0983295,0.060989052,0.065490723,-0.143997192,-0.988494873,51.35353088,-54.85221863,-76.84448242,,,,,,,,
3,16:09.3,00:26,60,0,16:19.4,1661948179,0.041670482,0.054600661,0.064899372,0.05380249,-0.174301147,-0.977218628,51.43310547,-54.89971924,-77.05853271,,,,,,,,
3,16:09.3,00:26,60,0,16:19.4,1661948179,0.060992514,-0.002681803,0.073885143,0.072784424,-0.166122437,-0.997253418,51.39225769,-54.71307373,-77.03590393,,,,,,,,
3,16:09.3,00:26,60,0,16:19.4,1661948179,0.042988746,-0.039603602,0.038137266,0.074554443,-0.171310425,-1.011276245,51.46369934,-55.05952454,-76.80964661,,,,,,,,
3,16:09.3,00:26,60,0,16:19.4,1661948179,-0.003877563,-0.043489953,-0.02465235,0.066314697,-0.160079956,-1.000930786,51.46369934,-55.05952454,-76.80964661,,,,,,,,
3,16:09.3,00:26,60,0,16:19.4,1661948179,-0.038707182,-0.037747645,-0.067307934,0.053268433,-0.160598755,-0.98223877,51.3790741,-54.62295532,-76.98512268,,,,,,,,
3,16:09.3,00:26,60,0,16:19.5,1661948179,-0.015852999,-0.010062754,-0.062095329,0.053375244,-0.164276123,-0.978240967,51.32600403,-54.6603241,-76.90312195,,,,,,,,
3,16:09.3,00:26,60,0,16:19.5,1661948179,0.044841507,0.001589641,-0.023763919,0.055221558,-0.178085327,-0.983032227,51.06054688,-54.51290894,-76.90039063,,,,,,,,
3,16:09.3,00:26,60,0,16:19.5,1661948179,0.072362082,0.009628393,-0.003013899,0.065948486,-0.181137085,-1.001525879,51.45733643,-55.29356384,-76.87870789,,,,,,,,
3,16:09.3,00:26,60,0,16:19.5,1661948180,0.058983426,0.017408019,-0.023045931,0.066482544,-0.179794312,-1.005386353,51.30033875,-54.76597595,-76.78108215,,,,,,,,
3,16:09.3,00:26,60,0,16:19.5,1661948180,0.027208185,0.001743838,-0.053583067,0.059356689,-0.171600342,-1.000030518,51.30033875,-54.76597595,-76.78108215,,,,,,,,
3,16:09.3,00:26,60,0,16:19.5,1661948180,-0.004443484,-0.016781643,-0.067032297,0.059432983,-0.171051025,-0.999237061,51.41078186,-54.92321777,-76.99864197,,,,,,,,
3,16:09.3,00:26,60,0,16:19.6,1661948180,-0.007071492,-0.046152049,-0.043034553,0.059768677,-0.177932739,-0.996856689,51.33799744,-54.8187561,-76.84332275,,,,,,,,
3,16:09.3,00:26,60,0,16:19.6,1661948180,0.009899769,-0.05150447,-0.01176771,0.065673828,-0.189956665,-0.997741699,51.34933472,-55.20892334,-77.06156921,,,,,,,,
3,16:09.3,00:26,60,0,16:19.6,1661948180,0.011175157,-0.063588564,0.015233281,0.067459106,-0.193084717,-0.987503052,51.05566406,-54.89199829,-76.98287964,,,,,,,,
3,16:09.3,00:26,60,0,16:19.6,1661948180,-0.018455706,-0.165105601,0.017442374,0.067932129,-0.1796875,-0.98828125,50.90586853,-54.8656311,-77.02098083,,,,,,,,
3,16:09.3,00:26,60,0,16:19.6,1661948180,-0.049630936,-0.110129701,0.09293793,0.069702148,-0.186416626,-0.98286438,50.90586853,-54.8656311,-77.02098083,,,,,,,,
3,16:09.3,00:26,60,0,16:19.6,1661948180,-0.127776871,-0.055305866,0.09494622,0.088760376,-0.192260742,-0.94972229,51.10012817,-54.96748352,-76.30348206,,,,,,,,
3,16:09.3,00:26,60,0,16:19.7,1661948180,-0.177826457,0.047666855,0.266081218,0.080673218,-0.177230835,-0.944717407,51.06155396,-55.04833984,-76.86315918,,,,,,,,
3,16:09.3,00:26,60,0,16:19.7,1661948180,-0.184276633,-0.167485402,0.275767934,0.141784668,-0.143920898,-0.931564331,51.17747498,-54.54598999,-76.86907959,,,,,,,,
3,16:09.3,00:26,60,0,16:19.7,1661948180,-0.203472165,-0.197194828,0.170562951,0.062911987,-0.211013794,-1.007446289,51.22463989,-54.47157288,-76.69285583,,,,,,,,
3,16:09.3,00:26,60,0,16:19.7,1661948180,-0.230239331,-0.173324383,0.100555104,0.049179077,-0.234848022,-0.954589844,51.09931946,-54.45237732,-76.6018219,,,,,,,,
3,16:09.3,00:26,60,0,16:19.7,1661948180,-0.238432812,-0.128610973,0.165157,0.040924072,-0.24168396,-0.943557739,51.09931946,-54.45237732,-76.6018219,,,,,,,,
3,16:09.3,00:26,60,0,16:19.7,1661948180,-0.17265806,-0.112716163,0.190894588,0.073867798,-0.188659668,-0.930496216,50.99208069,-54.13601685,-76.64685059,,,,,,,,
3,16:09.3,00:26,60,0,16:19.8,1661948180,-0.115238975,0.020755346,0.196954078,0.075332642,-0.18661499,-0.941482544,50.95820618,-53.91827393,-76.47998047,,,,,,,,
3,16:09.3,00:26,60,0,16:19.8,1661948180,0.009494169,0.078992021,0.262303524,0.078689575,-0.173324585,-0.929595947,51.0284729,-53.78504944,-76.57528687,,,,,,,,
3,16:09.3,00:26,60,0,16:19.8,1661948180,0.059862535,0.322052609,0.479922135,0.076583862,-0.193481445,-0.95640564,51.57446289,-53.89334106,-76.18910217,,,,,,,,
3,16:09.3,00:26,60,0,16:19.8,1661948180,0.126823193,0.211059245,0.484496913,0.143951416,-0.089157104,-0.929168701,51.95741272,-54.04988098,-76.36898804,,,,,,,,
3,16:09.3,00:26,60,0,16:19.8,1661948180,0.179832882,0.283447692,0.25377768,0.080383301,-0.249252319,-0.985153198,51.95741272,-54.04988098,-76.36898804,,,,,,,,
3,16:09.3,00:26,60,0,16:19.8,1661948180,0.218378943,0.431952745,0.265722757,0.031509399,-0.31791687,-0.942321777,52.38433838,-54.09382629,-76.48725891,,,,,,,,
3,16:09.3,00:26,60,0,16:19.9,1661948180,0.379908718,0.548541143,0.264838587,0.116287231,-0.157546997,-0.898849487,52.931427,-54.34414673,-77.01107788,,,,,,,,
3,16:09.3,00:26,60,0,16:19.9,1661948180,0.601087442,0.898357206,0.287595831,0.101699829,-0.2162323,-0.893630981,53.57397461,-54.54159546,-77.09606934,,,,,,,,
3,16:09.3,00:26,60,0,16:19.9,1661948180,0.925033292,1.349412805,0.322944767,0.104431152,-0.240234375,-0.78944397,54.58644104,-55.33668518,-77.53651428,,,,,,,,
3,16:09.3,00:26,60,0,16:19.9,1661948180,1.269782957,1.90575275,0.471268992,0.118667603,-0.259094238,-0.719787598,56.14578247,-56.11935425,-77.88499451,,,,,,,,
3,16:09.3,00:26,60,0,16:19.9,1661948180,1.575117306,2.364446029,0.594509967,0.13899231,-0.320755005,-0.674255371,56.14578247,-56.11935425,-77.88499451,,,,,,,,
3,16:09.3,00:26,60,0,16:19.9,1661948180,1.645879893,2.564132244,0.58143065,0.20489502,-0.315643311,-0.710632324,58.3188324,-57.76765442,-78.25013733,,,,,,,,
3,16:09.3,00:26,60,0,16:20.0,1661948180,1.489447408,2.45676291,0.438296661,0.231552124,-0.301132202,-0.778930664,60.52243042,-59.04180908,-78.65971375,,,,,,,,
3,16:09.3,00:26,60,0,16:20.0,1661948180,1.362892129,2.404745248,0.183132006,0.251617432,-0.25038147,-0.840545654,62.62309265,-60.16786194,-78.81733704,,,,,,,,
3,16:09.3,00:26,60,0,16:20.0,1661948180,1.361818609,2.352714271,0.061036989,0.26109314,-0.196975708,-0.784103394,64.43585205,-61.57594299,-78.73446655,,,,,,,,
3,16:09.3,00:26,60,0,16:20.0,1661948180,1.285851939,2.541401099,0.091205012,0.249053955,-0.274810791,-0.753662109,66.50744629,-62.26567078,-78.65637207,,,,,,,,
3,16:09.3,00:26,60,0,16:20.0,1661948180,1.217784204,2.821601598,0.155638064,0.273071289,-0.310760498,-0.601760864,66.50744629,-62.26567078,-78.65637207,,,,,,,,
3,16:09.3,00:26,60,0,16:20.0,1661948180,1.023601678,3.073239162,0.219182951,0.318161011,-0.355636597,-0.553741455,68.98112488,-63.75276184,-78.07789612,,,,,,,,
3,16:09.3,00:26,60,0,16:20.1,1661948180,0.61538116,3.146437743,0.259715198,0.377212524,-0.372055054,-0.558547974,71.12174988,-64.18829346,-77.43276978,,,,,,,,
3,16:09.3,00:26,60,0,16:20.1,1661948180,0.063470852,2.906706905,0.148511977,0.44694519,-0.358123779,-0.600738525,73.62121582,-64.79560852,-76.48168945,,,,,,,,
3,16:09.3,00:26,60,0,16:20.1,1661948180,-0.418924561,2.464659182,-0.00593086,0.494995117,-0.290924072,-0.706924438,75.38027954,-64.43391418,-74.85955811,,,,,,,,
3,16:09.3,00:26,60,0,16:20.1,1661948180,-0.297193331,1.90389919,-0.081433607,0.511016846,-0.22277832,-0.749084473,76.81410217,-64.29846191,-73.7739563,,,,,,,,
3,16:09.3,00:26,60,0,16:20.1,1661948180,-0.165166588,1.76120835,-0.156815713,0.489532471,-0.288497925,-0.789138794,76.81410217,-64.29846191,-73.7739563,,,,,,,,
3,16:09.3,00:26,60,0,16:20.1,1661948180,-0.124310234,2.076284009,-0.233636992,0.494430542,-0.227050781,-0.609527588,77.92707825,-64.30055237,-72.37072754,,,,,,,,
3,16:09.3,00:26,60,0,16:20.2,1661948180,0.029054289,2.549431062,-0.328707049,0.49382019,-0.217697144,-0.429214478,79.34089661,-63.88705444,-71.69801331,,,,,,,,
3,16:09.3,00:26,60,0,16:20.2,1661948180,0.251745422,3.003248625,-0.346011471,0.535751343,-0.224121094,-0.400192261,80.8968811,-63.76887512,-70.15286255,,,,,,,,
3,16:09.3,00:26,60,0,16:20.2,1661948180,0.515745114,3.257773322,-0.366269605,0.596923828,-0.213760376,-0.392379761,82.92707825,-64.09654236,-68.55415344,,,,,,,,
3,16:09.3,00:26,60,0,16:20.2,1661948180,0.621294976,3.310932415,-0.515843118,0.642944336,-0.195236206,-0.423721313,84.61289978,-64.33413696,-66.24783325,,,,,,,,
3,16:09.3,00:26,60,0,16:20.2,1661948180,0.497320566,3.193245995,-0.847729715,0.676712036,-0.154891968,-0.432342529,84.61289978,-64.33413696,-66.24783325,,,,,,,,
3,16:09.3,00:26,60,0,16:20.2,1661948180,0.285353982,2.938559644,-1.278564465,0.71887207,-0.086990356,-0.444229126,85.71102905,-63.61381531,-64.17236328,,,,,,,,
3,16:09.3,00:26,60,0,16:20.3,1661948180,0.125710525,2.706576475,-1.593273939,0.783584595,-0.018173218,-0.478256226,86.7130127,-62.71307373,-62.54925537,,,,,,,,
3,16:09.3,00:26,60,0,16:20.3,1661948180,-0.01824505,2.40139659,-1.708524366,0.846969604,-0.024902344,-0.476303101,87.11325073,-61.68354797,-60.89584351,,,,,,,,
3,16:09.3,00:26,60,0,16:20.3,1661948180,-0.237355564,2.048262228,-1.766086995,0.885437012,-0.078338623,-0.490203857,87.28001404,-60.07746887,-59.20222473,,,,,,,,
3,16:09.3,00:26,60,0,16:20.3,1661948180,-0.602221683,1.710086043,-1.881225835,0.88885498,-0.080322266,-0.484039307,87.00971985,-58.48136902,-57.34036255,,,,,,,,
3,16:09.3,00:26,60,0,16:20.3,1661948180,-1.247578585,1.627962145,-2.078699496,0.890625,-0.022094727,-0.388656616,86.5291748,-56.45269775,-55.66531372,,,,,,,,
3,16:09.3,00:26,60,0,16:20.3,1661948180,-1.183129821,1.558091184,-2.00382925,0.942626953,-0.026168823,-0.366653442,86.5291748,-56.45269775,-55.66531372,,,,,,,,
3,16:09.3,00:26,60,0,16:20.4,1661948180,-1.100391797,1.316652994,-1.942844991,0.986328125,-0.032394409,-0.412918091,86.1578064,-54.99092102,-53.20181274,,,,,,,,
3,16:09.3,00:26,60,0,16:20.4,1661948180,-1.217343185,1.062462258,-1.961138511,0.994262695,-0.003036499,-0.441268921,85.34152222,-52.70799255,-52.55613708,,,,,,,,
3,16:09.3,00:26,60,0,16:20.4,1661948180,-1.502321395,0.995996681,-2.062954089,0.984893799,0.042205811,-0.401794434,84.54116821,-51.06695557,-50.98544312,,,,,,,,
3,16:09.3,00:26,60,0,16:20.4,1661948180,-1.760220584,1.174798387,-2.192206351,0.986602783,0.070480347,-0.311843872,83.39627075,-49.30921936,-49.05508423,,,,,,,,
3,16:09.3,00:26,60,0,16:20.4,1661948180,-1.884282079,1.365787518,-2.212456496,1.037353516,0.104919434,-0.238586426,82.19256592,-47.15180969,-46.81739807,,,,,,,,
3,16:09.3,00:26,60,0,16:20.4,1661948180,-1.925598892,1.422137077,-2.101744362,1.095535278,0.091873169,-0.234695435,82.19256592,-47.15180969,-46.81739807,,,,,,,,
3,16:09.3,00:26,60,0,16:20.5,1661948180,-1.78084357,1.239083368,-1.995553743,1.148086548,0.083297729,-0.283966064,81.01019287,-45.58802795,-45.00088501,,,,,,,,
3,16:09.3,00:26,60,0,16:20.5,1661948180,-1.520974708,0.937373315,-1.957806364,1.213882446,0.115951538,-0.366607666,79.66499329,-44.3099823,-42.97911072,,,,,,,,
3,16:09.3,00:26,60,0,16:20.5,1661948180,-1.405586596,0.807633428,-1.943629558,1.255935669,0.167648315,-0.403305054,78.39167786,-43.09454346,-41.23330688,,,,,,,,
3,16:09.3,00:26,60,0,16:20.5,1661948181,-1.404181246,0.630923901,-2.017960515,1.232543945,0.212509155,-0.313690186,76.89173889,-41.81419373,-40.09690857,,,,,,,,
3,16:09.3,00:26,60,0,16:20.5,1661948181,-1.489120372,0.57122302,-2.141126389,1.217391968,0.263504028,-0.334686279,75.42366028,-40.72657776,-38.34608459,,,,,,,,
3,16:09.3,00:26,60,0,16:20.5,1661948181,-1.560624117,0.514829252,-2.28794646,1.202316284,0.307662964,-0.261032104,75.42366028,-40.72657776,-38.34608459,,,,,,,,
3,16:09.3,00:26,60,0,16:20.6,1661948181,-1.545534646,0.446223826,-2.43695991,1.196731567,0.352478027,-0.2578125,73.50904846,-39.6519928,-36.97128296,,,,,,,,
3,16:09.3,00:26,60,0,16:20.6,1661948181,-1.479945249,0.33920816,-2.515657119,1.205718994,0.377502441,-0.256149292,71.39710999,-38.30262756,-35.38972473,,,,,,,,
3,16:09.3,00:26,60,0,16:20.6,1661948181,-1.403723715,0.239094608,-2.570988552,1.196899414,0.387924194,-0.2552948,69.36312866,-37.51824951,-34.10769653,,,,,,,,
3,16:09.3,00:26,60,0,16:20.6,1661948181,-1.312418036,0.165360466,-2.614857207,1.188720703,0.418792725,-0.246826172,67.06211853,-36.57479858,-32.97375488,,,,,,,,
3,16:09.3,00:26,60,0,16:20.6,1661948181,-1.172312859,0.110570986,-2.668338542,1.185668945,0.44581604,-0.21875,64.92324829,-36.14828491,-31.77095032,,,,,,,,
3,16:09.3,00:26,60,0,16:20.6,1661948181,-0.9932981,0.083222186,-2.724229504,1.182388306,0.478988647,-0.202301025,64.92324829,-36.14828491,-31.77095032,,,,,,,,
3,16:09.3,00:26,60,0,16:20.7,1661948181,-0.785907892,0.098556668,-2.776716148,1.184051514,0.496200562,-0.177947998,62.56340027,-35.43234253,-30.66061401,,,,,,,,
3,16:09.3,00:26,60,0,16:20.7,1661948181,-0.55233961,0.090498741,-2.811522332,1.191116333,0.512863159,-0.150161743,60.06950378,-35.07917786,-30.06283569,,,,,,,,
3,16:09.3,00:26,60,0,16:20.7,1661948181,-0.351287193,0.179434473,-2.746229346,1.205535889,0.516845703,-0.129257202,57.68106079,-34.55821228,-29.52700806,,,,,,,,
3,16:09.3,00:26,60,0,16:20.7,1661948181,-0.265745394,0.295472663,-2.718034725,1.224472046,0.507400513,-0.092407227,55.22727966,-34.27062988,-29.46897888,,,,,,,,
3,16:09.3,00:26,60,0,16:20.7,1661948181,-0.211376427,0.368411319,-2.577867497,1.288345337,0.520828247,-0.068969727,53.0854187,-34.2518158,-28.99017334,,,,,,,,
3,16:09.3,00:26,60,0,16:20.7,1661948181,-0.152502191,0.47674738,-2.485148212,1.335235596,0.552993774,-0.049224854,53.0854187,-34.2518158,-28.99017334,,,,,,,,
3,16:09.3,00:26,60,0,16:20.8,1661948181,-0.095889246,0.538360944,-2.470612146,1.3800354,0.568084717,-0.033370972,50.76359558,-34.04611206,-28.94612122,,,,,,,,
3,16:09.3,00:26,60,0,16:20.8,1661948181,-0.09961128,0.47151054,-2.465897286,1.40864563,0.562011719,-0.053482056,48.57733154,-34.13092041,-28.90507507,,,,,,,,
3,16:09.3,00:26,60,0,16:20.8,1661948181,-0.217387448,0.279684112,-2.313668069,1.365478516,0.484802246,-0.122650146,46.44573975,-34.38677979,-29.0045166,,,,,,,,
3,16:09.3,00:26,60,0,16:20.8,1661948181,-0.400822256,-0.037153228,-1.946992864,1.25289917,0.344924927,-0.210159302,45.01945496,-34.89234924,-28.25205994,,,,,,,,
3,16:09.3,00:26,60,0,16:20.8,1661948181,-0.559170352,-0.426723095,-1.411797088,1.127059937,0.201126099,-0.292663574,43.88630676,-35.16978455,-27.84182739,,,,,,,,
3,16:09.3,00:26,60,0,16:20.8,1661948181,-0.571343129,-0.804512736,-0.767753123,1.048934937,0.125991821,-0.335159302,43.88630676,-35.16978455,-27.84182739,,,,,,,,
3,16:09.3,00:26,60,0,16:20.9,1661948181,-0.401053951,-1.045102709,-0.177430977,1.00769043,0.104629517,-0.323120117,43.38739014,-35.15214539,-26.74543762,,,,,,,,
3,16:09.3,00:26,60,0,16:20.9,1661948181,-0.126912143,-1.082453809,0.233215946,0.986816406,0.168167114,-0.260864258,43.80342102,-35.04551697,-26.3724823,,,,,,,,
3,16:09.3,00:26,60,0,16:20.9,1661948181,0.184815923,-0.898339363,0.463600686,0.975082397,0.276428223,-0.173919678,44.35064697,-35.04920959,-26.52954102,,,,,,,,
3,16:09.3,00:26,60,0,16:20.9,1661948181,0.490997423,-0.572141811,0.581849565,0.969924927,0.382949829,-0.085601807,44.94586182,-34.87445068,-26.53535461,,,,,,,,
3,16:09.3,00:26,60,0,16:20.9,1661948181,0.733661466,-0.210280803,0.695728731,0.963134766,0.444702148,-0.02923584,45.63310242,-34.71362305,-26.91593933,,,,,,,,
3,16:09.3,00:26,60,0,16:20.9,1661948181,0.9012233,0.104813232,0.846119568,0.946624756,0.459121704,-0.012207031,45.63310242,-34.71362305,-26.91593933,,,,,,,,
3,16:09.3,00:26,60,0,16:21.0,1661948181,1.040270137,0.348432551,1.006541468,0.920440674,0.450485229,-0.03163147,46.477005,-34.44456482,-27.44535828,,,,,,,,
3,16:09.3,00:26,60,0,16:21.0,1661948181,1.146517481,0.477154844,1.184419057,0.895263672,0.442214966,-0.07220459,47.15493774,-34.03659058,-28.81546021,,,,,,,,
3,16:09.3,00:26,60,0,16:21.0,1661948181,1.221978417,0.46477008,1.365901501,0.893203735,0.440475464,-0.114486694,48.33616638,-33.69076538,-29.76347351,,,,,,,,
3,16:09.3,00:26,60,0,16:21.0,1661948181,1.234026025,0.377999498,1.570614966,0.90272522,0.436203003,-0.148773193,49.66299438,-33.2946167,-30.92851257,,,,,,,,
3,16:09.3,00:26,60,0,16:21.0,1661948181,1.153035035,0.273575087,1.767970382,0.913787842,0.430633545,-0.154037476,51.22010803,-32.98475647,-31.85777283,,,,,,,,
3,16:09.3,00:26,60,0,16:21.0,1661948181,0.975113504,0.188401337,1.944877782,0.919586182,0.442016602,-0.145553589,51.22010803,-32.98475647,-31.85777283,,,,,,,,
3,16:09.3,00:26,60,0,16:21.1,1661948181,0.567677554,0.081630947,2.196076723,0.977798462,0.532592773,-0.111740112,52.99581909,-32.77963257,-32.28779602,,,,,,,,
3,16:09.3,00:26,60,0,16:21.1,1661948181,0.459247216,0.007998005,2.297309069,1.033615112,0.603134155,-0.104629517,55.15246582,-32.66116333,-32.96897888,,,,,,,,
3,16:09.3,00:26,60,0,16:21.1,1661948181,0.427308724,-0.105287008,2.47471661,1.069320679,0.650588989,-0.104736328,57.32392883,-32.41348267,-33.46055603,,,,,,,,
3,16:09.3,00:26,60,0,16:21.1,1661948181,0.387775696,-0.13721325,2.604957704,1.087280273,0.672927856,-0.113342285,59.37371826,-32.45037842,-33.76945496,,,,,,,,
3,16:09.3,00:26,60,0,16:21.1,1661948181,0.327199167,-0.192166247,2.673928783,1.111251831,0.703475952,-0.107116699,61.47938538,-32.71002197,-34.05184937,,,,,,,,
3,16:09.3,00:26,60,0,16:21.1,1661948181,0.295423661,-0.276948247,2.686857365,1.124572754,0.745239258,-0.114151001,61.47938538,-32.71002197,-34.05184937,,,,,,,,
3,16:09.3,00:26,60,0,16:21.2,1661948181,0.308504575,-0.298748884,2.658700295,1.109649658,0.776397705,-0.115325928,63.81550598,-33.36959839,-34.23216248,,,,,,,,
3,16:09.3,00:26,60,0,16:21.2,1661948181,0.356906729,-0.307060077,2.610842492,1.096664429,0.772872925,-0.099349976,65.9822998,-33.75732422,-34.79562378,,,,,,,,
3,16:09.3,00:26,60,0,16:21.2,1661948181,0.40501274,-0.32733632,2.591463467,1.098907471,0.755584717,-0.083953857,68.37527466,-35.00564575,-35.14414978,,,,,,,,
3,16:09.3,00:26,60,0,16:21.2,1661948181,0.426738541,-0.320305841,2.601226616,1.081970215,0.736114502,-0.065536499,70.7844696,-35.78407288,-35.83889771,,,,,,,,
3,16:09.3,00:26,60,0,16:21.2,1661948181,0.418280874,-0.260009211,2.589318291,1.035339355,0.712661743,-0.053619385,73.05157471,-37.09294128,-36.13806152,,,,,,,,
3,16:09.3,00:26,60,0,16:21.2,1661948181,0.424647427,-0.192973718,2.536721392,0.985275269,0.698410034,-0.044311523,73.05157471,-37.09294128,-36.13806152,,,,,,,,
3,16:09.3,00:26,60,0,16:21.3,1661948181,0.468128326,-0.113822972,2.439635056,0.944610596,0.690658569,-0.036376953,75.40461731,-37.88909912,-36.1963501,,,,,,,,
3,16:09.3,00:26,60,0,16:21.3,1661948181,0.54628225,-0.045138716,2.317127515,0.912765503,0.68421936,-0.019439697,77.45700073,-39.38418579,-36.76145935,,,,,,,,
3,16:09.3,00:26,60,0,16:21.3,1661948181,0.619298404,0.048394697,2.188862753,0.876739502,0.67755127,-0.001358032,79.19015503,-40.43292236,-37.296875,,,,,,,,
3,16:09.3,00:26,60,0,16:21.3,1661948181,0.626070556,0.131267743,2.031516537,0.832550049,0.658554077,0.012130737,81.00160217,-41.44012451,-37.8637085,,,,,,,,
3,16:09.3,00:26,60,0,16:21.3,1661948181,0.564996549,0.210845659,1.855043499,0.795761108,0.641921997,0.013641357,82.46662903,-42.5405426,-38.02137756,,,,,,,,
3,16:09.3,00:26,60,0,16:21.3,1661948181,0.453996528,0.282221572,1.641793538,0.748672485,0.622970581,0.016296387,83.68847656,-43.644104,-38.21385193,,,,,,,,
3,16:09.3,00:26,60,0,16:21.4,1661948181,0.305179352,0.37332565,1.382037594,0.709793091,0.610549927,0.018478394,83.68847656,-43.644104,-38.21385193,,,,,,,,
3,16:09.3,00:26,60,0,16:21.4,1661948181,0.124939007,0.484824215,1.099188315,0.677200317,0.605239868,0.025192261,84.6509552,-44.26760864,-38.17887878,,,,,,,,
3,16:09.3,00:26,60,0,16:21.4,1661948181,-0.050533748,0.56230942,0.825199106,0.656448364,0.597518921,0.028076172,85.44030762,-44.82032776,-37.7762146,,,,,,,,
3,16:09.3,00:26,60,0,16:21.4,1661948181,-0.190895653,0.568837094,0.591744008,0.644760132,0.581954956,0.009841919,85.90640259,-45.51646423,-37.78717041,,,,,,,,
3,16:09.3,00:26,60,0,16:21.4,1661948181,-0.311779198,0.511971947,0.370019069,0.630661011,0.556213379,-0.0184021,86.17886353,-45.96032715,-36.97216797,,,,,,,,
3,16:09.3,00:26,60,0,16:21.4,1661948181,-0.434375955,0.419921115,0.149070176,0.614624023,0.531982422,-0.043014526,86.39382935,-45.99716187,-36.34025574,,,,,,,,
3,16:09.3,00:26,60,0,16:21.5,1661948181,-0.590757839,0.333995821,-0.089678488,0.594711304,0.513092041,-0.064437866,86.39382935,-45.99716187,-36.34025574,,,,,,,,
3,16:09.3,00:26,60,0,16:21.5,1661948181,-0.794622821,0.281859649,-0.319778003,0.580841064,0.502593994,-0.073196411,86.24450684,-45.79463196,-35.4646759,,,,,,,,
3,16:09.3,00:26,60,0,16:21.5,1661948181,-1.045673424,0.244482715,-0.517369109,0.594268799,0.505233765,-0.075897217,85.98904419,-45.37088013,-34.89219666,,,,,,,,
3,16:09.3,00:26,60,0,16:21.5,1661948182,-1.294083237,0.164927169,-0.739764365,0.638885498,0.533813477,-0.081451416,85.27363586,-44.91645813,-33.78163147,,,,,,,,
3,16:09.3,00:26,60,0,16:21.5,1661948182,-1.479108484,0.069743395,-1.05590449,0.691925049,0.596664429,-0.09992981,84.6991272,-44.36349487,-32.78678894,,,,,,,,
3,16:09.3,00:26,60,0,16:21.5,1661948182,-1.603132162,0.034035199,-1.395784832,0.728424072,0.650787354,-0.118545532,83.70143127,-43.26098633,-31.42536926,,,,,,,,
3,16:09.3,00:26,60,0,16:21.6,1661948182,-1.691084389,0.027230822,-1.727469827,0.762619019,0.672393799,-0.11756897,83.70143127,-43.26098633,-31.42536926,,,,,,,,
3,16:09.3,00:26,60,0,16:21.6,1661948182,-1.742707903,-0.004207528,-2.034540823,0.816146851,0.69102478,-0.128448486,82.58175659,-42.60848999,-30.14912415,,,,,,,,
3,16:09.3,00:26,60,0,16:21.6,1661948182,-1.735933886,-0.058579424,-2.246513799,0.856521606,0.67539978,-0.151596069,80.92736816,-41.73257446,-28.69618225,,,,,,,,
3,16:09.3,00:26,60,0,16:21.6,1661948182,-1.701470984,-0.121553596,-2.351675106,0.870864868,0.620056152,-0.17288208,79.0269928,-40.46626282,-27.68061829,,,,,,,,
3,16:09.3,00:26,60,0,16:21.6,1661948182,-1.673522173,-0.170657227,-2.38202955,0.871704102,0.56842041,-0.188995361,77.34150696,-39.63148499,-26.1381073,,,,,,,,
3,16:09.3,00:26,60,0,16:21.6,1661948182,-1.671262215,-0.216738436,-2.38024896,0.891204834,0.550750732,-0.194488525,75.54026794,-38.8966217,-24.68840027,,,,,,,,
3,16:09.3,00:26,60,0,16:21.7,1661948182,-1.678029307,-0.23049313,-2.417568103,0.943756104,0.582519531,-0.186553955,75.54026794,-38.8966217,-24.68840027,,,,,,,,
3,16:09.3,00:26,60,0,16:21.7,1661948182,-1.671894982,-0.177312733,-2.493475651,1.012161255,0.660507202,-0.166824341,73.53569031,-38.1171875,-23.34684753,,,,,,,,
3,16:09.3,00:26,60,0,16:21.7,1661948182,-1.596322992,-0.109417305,-2.547583095,1.083251953,0.73765564,-0.136627197,71.41763306,-37.43078613,-22.0436554,,,,,,,,
3,16:09.3,00:26,60,0,16:21.7,1661948182,-1.457282547,-0.018927352,-2.629113108,1.124984741,0.763397217,-0.13319397,69.24014282,-37.04180908,-20.79605103,,,,,,,,
3,16:09.3,00:26,60,0,16:21.7,1661948182,-1.289903406,0.00014461,-2.661012718,1.159973145,0.751419067,-0.144668579,67.07546997,-36.99420166,-18.71740723,,,,,,,,
3,16:09.3,00:26,60,0,16:21.7,1661948182,-1.123790863,-0.043000731,-2.559819521,1.149993896,0.708328247,-0.174591064,65.02107239,-36.19294739,-18.45463562,,,,,,,,
3,16:09.3,00:26,60,0,16:21.8,1661948182,-0.966651309,-0.104491789,-2.363838295,1.105438232,0.629653931,-0.20993042,65.02107239,-36.19294739,-18.45463562,,,,,,,,
3,16:09.3,00:26,60,0,16:21.8,1661948182,-0.665069887,-0.388820188,-1.813018285,1.037002563,0.521118164,-0.241088867,63.12512207,-35.81738281,-17.96354675,,,,,,,,
3,16:09.3,00:26,60,0,16:21.8,1661948182,-0.53334488,-0.561356807,-1.555777962,1.021484375,0.507781982,-0.237060547,61.91307068,-35.92922974,-17.02166748,,,,,,,,
3,16:09.3,00:26,60,0,16:21.8,1661948182,-0.461615033,-0.704495857,-1.351975299,1.009887695,0.511520386,-0.212921143,60.49014282,-35.6060791,-17.17155457,,,,,,,,
3,16:09.3,00:26,60,0,16:21.8,1661948182,-0.489577425,-0.834291937,-1.191912127,0.988922119,0.512649536,-0.175567627,59.66122437,-35.41279602,-16.75881958,,,,,,,,
