SessionID,SessionDate,SessionDuration,SessionFrequency,RecordID,Timestamp,timeIntervalSince1970,GyroX,GyroY,GyroZ,AccX,AccY,AccZ,MagX,MagY,MagZ,WatchTimestamp,WatchtImeIntervalSince1970,WatchGyroX,WatchGyroY,WatchGyroZ,WatchAccX,WatchAccY,WatchAccZ
0,2022-09-07 20:13:16.2710,00:07,60,0,2022-09-07 20:13:16.3580,1662552796.3582602,-0.002506300901873571,-0.0100627541788644,-0.008738896800986013,0.000274658203125,-0.0557708740234375,-1.0042877197265625,89.026123046875,-82.74459838867188,-72.20602416992188,2022-09-07 20:13:16.0930,1662552796.093123,-0.0032767567317932844,-0.0025790848303586245,-0.0009033391252160072,-0.14086875319480896,0.044225387275218964,-0.9682488441467285,
0,2022-09-07 20:13:16.2710,00:07,60,0,2022-09-07 20:13:16.3730,1662552796.373485,-0.0007392935186059965,-0.010926417320377099,-0.009657421060954342,0.000701904296875,-0.05462646484375,-1.0038909912109375,89.026123046875,-82.74459838867188,-72.20602416992188,2022-09-07 20:13:16.1490,1662552796.14905,0.0006205132231116295,-0.0012704075779765844,-0.0019275899976491928,-0.14123493432998657,0.044423747807741165,-0.9672722816467285,
0,2022-09-07 20:13:16.2710,00:07,60,0,2022-09-07 20:13:16.3900,1662552796.390005,-0.0023821975950758787,-0.010138920586040668,-0.005639509924351795,0.0010833740234375,-0.055938720703125,-1.003936767578125,89.1270751953125,-82.76597595214844,-71.67182922363281,2022-09-07 20:13:16.1490,1662552796.1490998,0.0010066716931760311,0.0020231239032000303,0.0003360435366630554,-0.14083817601203918,0.04483573138713837,-0.968813419342041,
0,2022-09-07 20:13:16.2710,00:07,60,0,2022-09-07 20:13:16.4060,1662552796.406461,-0.0013262542228594607,-0.007706122930253283,-0.010645187509264731,3.0517578125e-05,-0.0551605224609375,-1.0039215087890625,89.16529846191406,-83.02430725097656,-72.34974670410156,2022-09-07 20:13:16.1640,1662552796.164063,0.0010908273980021477,-0.0012967728544026613,0.0013931049033999443,-0.14004471898078918,0.04521719738841057,-0.9687981605529785,
0,2022-09-07 20:13:16.2710,00:07,60,0,2022-09-07 20:13:16.4240,1662552796.423935,-0.0004183826072514483,-0.011655324510731787,-0.009489908228388357,0.0004425048828125,-0.055908203125,-1.003936767578125,88.97381591796875,-83.09181213378906,-72.9610595703125,2022-09-07 20:13:16.1910,1662552796.191422,0.003134271129965782,0.0021514883264899254,0.000748087652027607,-0.13960222899913788,0.04234854131937027,-0.9661889672279358,
0,2022-09-07 20:13:16.2710,00:07,60,0,2022-09-07 20:13:16.4410,1662552796.440658,0.0005414206496131091,-0.008956210745936478,-0.006353769728711047,0.0003509521484375,-0.0552215576171875,-1.0036773681640625,88.96163940429688,-82.71485900878906,-73.19181823730469,2022-09-07 20:13:16.2210,1662552796.221096,-0.000713197747245431,0.0023858463391661644,0.000796823762357235,-0.141112819314003,0.044149067252874374,-0.9686151146888733,
0,2022-09-07 20:13:16.2710,00:07,60,0,2022-09-07 20:13:16.4570,1662552796.457155,-0.0041625207837938496,-0.01120445133818137,-0.008224640394491712,7.62939453125e-05,-0.055938720703125,-1.004119873046875,88.97602844238281,-82.89501953125,-72.37055969238281,2022-09-07 20:13:16.2510,1662552796.251121,-0.0028005833737552166,0.0037336722016334534,-0.000929596833884716,-0.1401057243347168,0.04433217644691467,-0.9682489037513733,
0,2022-09-07 20:13:16.2710,00:07,60,0,2022-09-07 20:13:16.4740,1662552796.473927,-0.0010876349891883609,-0.01011681634899301,-0.007742608237187369,0.000885009765625,-0.0549163818359375,-1.0036468505859375,88.97602844238281,-82.89501953125,-72.37055969238281,2022-09-07 20:13:16.2810,1662552796.281138,0.0011672601103782654,0.00032642390578985214,-0.0006743064150214195,-0.1414637565612793,0.04427113011479378,-0.968508243560791,
0,2022-09-07 20:13:16.2710,00:07,60,0,2022-09-07 20:13:16.4910,1662552796.490521,-0.0016341156448726206,-0.011113371228900661,-0.008930644399471718,0.0005950927734375,-0.0554656982421875,-1.0040740966796875,89.01693725585938,-82.90115356445312,-71.83903503417969,2022-09-07 20:13:16.3110,1662552796.310814,-0.0020828614942729473,0.0014247115468606353,-0.0011147931218147278,-0.1415705382823944,0.04576648026704788,-0.9681726098060608,
0,2022-09-07 20:13:16.2710,00:07,60,0,2022-09-07 20:13:16.5070,1662552796.507152,-0.004540157026367085,-0.011906993233744273,-0.008099471823257987,0.000396728515625,-0.0553131103515625,-1.003662109375,88.94978332519531,-82.75404357910156,-72.24679565429688,2022-09-07 20:13:16.3410,1662552796.3407059,0.002148368861526251,0.0011333618313074112,-0.0005520675331354141,-0.14045663177967072,0.04495775327086449,-0.9678826332092285,
0,2022-09-07 20:13:16.2710,00:07,60,0,2022-09-07 20:13:16.5240,1662552796.52404,-0.001192297220028475,-0.01070830442709961,-0.005918076574374083,0.0001220703125,-0.0549774169921875,-1.00421142578125,88.93766784667969,-82.90130615234375,-72.66751098632812,2022-09-07 20:13:16.3710,1662552796.370551,0.0008199838921427727,-0.0020182228181511164,-0.0003022626042366028,-0.14062444865703583,0.04517137259244919,-0.966982364654541,
0,2022-09-07 20:13:16.2710,00:07,60,0,2022-09-07 20:13:16.5400,1662552796.540302,-0.0020010992430855397,-0.007904528431464187,-0.005531385584094578,0.0002899169921875,-0.055633544921875,-1.0035552978515625,88.88104248046875,-83.07606506347656,-72.71246337890625,2022-09-07 20:13:16.4010,1662552796.4005861,0.00032809842377901077,-0.0015375225339084864,-0.0011854199692606926,-0.13996827602386475,0.0457206666469574,-0.9670891761779785,
0,2022-09-07 20:13:16.2710,00:07,60,0,2022-09-07 20:13:16.5570,1662552796.55696,-0.001622131419967264,-0.008205731950752148,-0.006265086464411408,0.00103759765625,-0.0546417236328125,-1.0039825439453125,89.07994079589844,-83.13990783691406,-71.63301086425781,2022-09-07 20:13:16.4300,1662552796.430448,0.0012554111890494823,0.0002089785411953926,-0.0003612786531448364,-0.14077703654766083,0.04681931436061859,-0.9671807289123535,
0,2022-09-07 20:13:16.2710,00:07,60,0,2022-09-07 20:13:16.5740,1662552796.573622,0.00039760995074883024,-0.009349027006723166,-0.008293882582833772,0.000457763671875,-0.055389404296875,-1.002899169921875,89.07994079589844,-83.13990783691406,-71.63301086425781,2022-09-07 20:13:16.4600,1662552796.460279,0.0004649846814572811,0.0013413546839728951,-0.0020957952365279198,-0.14079226553440094,0.044942472130060196,-0.967470645904541,
0,2022-09-07 20:13:16.2710,00:07,60,0,2022-09-07 20:13:16.5910,1662552796.5906138,-0.002982740420888747,-0.011627095003176945,-0.0077290261156279655,0.0002593994140625,-0.055877685546875,-1.003570556640625,89.05172729492188,-82.8656005859375,-71.42976379394531,2022-09-07 20:13:16.4910,1662552796.4909601,-0.0017353191506117582,-0.0005750560667365789,0.0009063864126801491,-0.14007507264614105,0.0434623621404171,-0.967257022857666,
0,2022-09-07 20:13:16.2710,00:07,60,0,2022-09-07 20:13:16.6070,1662552796.6074672,-0.0025326661966653557,-0.009925335066616314,-0.00618146320618292,0.0006866455078125,-0.055908203125,-1.0040740966796875,89.09895324707031,-82.78273010253906,-72.72993469238281,2022-09-07 20:13:16.5200,1662552796.5202289,-0.0006554073188453913,0.001310728257521987,-0.0001962697133421898,-0.14082275331020355,0.045125558972358704,-0.966127872467041,
0,2022-09-07 20:13:16.2710,00:07,60,0,2022-09-07 20:13:16.6250,1662552796.624576,-0.0032495891621146865,-0.01068886335114203,-0.008844890612371165,7.62939453125e-05,-0.0552825927734375,-1.0033416748046875,89.05474853515625,-83.04766845703125,-72.49905395507812,2022-09-07 20:13:16.5500,1662552796.550315,-0.002902848646044731,0.0041856104508042336,0.0009609824046492577,-0.14068540930747986,0.044286321848630905,-0.9680505394935608,
0,2022-09-07 20:13:16.2710,00:07,60,0,2022-09-07 20:13:16.6410,1662552796.640645,-0.002439455558512582,-0.006317817053994977,-0.007596933325560035,0.00018310546875,-0.05487060546875,-1.0044403076171875,88.81817626953125,-82.78616333007812,-72.53532409667969,2022-09-07 20:13:16.5800,1662552796.580432,-0.0011693972628563643,0.0020960946567356586,-0.0006547579541802406,-0.14161616563796997,0.04651409387588501,-0.9671502709388733,
0,2022-09-07 20:13:16.2710,00:07,60,0,2022-09-07 20:13:16.6590,1662552796.659264,0.00019467707568479232,-0.011668640316182182,-0.006946056755144669,9.1552734375e-05,-0.055084228515625,-1.0040435791015625,88.87297058105469,-82.5831298828125,-73.34527587890625,2022-09-07 20:13:16.6100,1662552796.610248,0.0015097428113222122,-0.004029176197946072,-0.002342669293284416,-0.13984614610671997,0.04500346630811691,-0.9679742455482483,
0,2022-09-07 20:13:16.2710,00:07,60,0,2022-09-07 20:13:16.6770,1662552796.6767,-0.0036751623043093486,-0.009453955553672287,-0.006422745600944099,-0.0003662109375,-0.0548248291015625,-1.0042572021484375,89.02642822265625,-82.82009887695312,-72.3369140625,2022-09-07 20:13:16.6410,1662552796.64112,-0.002620553597807884,-0.0004403002094477415,-0.002769840881228447,-0.14062435925006866,0.04507976025342941,-0.9683404564857483,
0,2022-09-07 20:13:16.2710,00:07,60,0,2022-09-07 20:13:16.6900,1662552796.6903129,-0.003093527922236043,-0.008142348716808263,-0.008058192826361759,0.0006561279296875,-0.0545196533203125,-1.0029296875,89.02642822265625,-82.82009887695312,-72.3369140625,2022-09-07 20:13:16.6700,1662552796.669817,0.002172603737562895,-0.003705601906403899,0.0006421646103262901,-0.14077693223953247,0.04454571008682251,-0.9667230248451233,
0,2022-09-07 20:13:16.2710,00:07,60,0,2022-09-07 20:13:16.7070,1662552796.707077,-0.004319913604217533,-0.010291519716502209,-0.0069013156488313375,0.00054931640625,-0.055755615234375,-1.0042877197265625,89.07449340820312,-82.80122375488281,-72.40391540527344,2022-09-07 20:13:16.7000,1662552796.699672,-0.0030085761100053787,0.003146977862343192,0.0001713177189230919,-0.14015132188796997,0.04463727027177811,-0.9673638939857483,
0,2022-09-07 20:13:16.2710,00:07,60,0,2022-09-07 20:13:16.7250,1662552796.72509,-0.002251969017771004,-0.007053914779292878,-0.00630077282301847,0.000244140625,-0.054840087890625,-1.003631591796875,88.8773193359375,-82.83143615722656,-72.51345825195312,2022-09-07 20:13:16.7300,1662552796.729768,-0.0011259876191616058,-0.0005811813753098249,0.00024337414652109146,-0.14260795712471008,0.045568037778139114,-0.9675775170326233,
0,2022-09-07 20:13:16.2710,00:07,60,0,2022-09-07 20:13:16.7410,1662552796.740547,-0.0006929545156386178,-0.011876100565099355,-0.005729524769196473,0.00048828125,-0.054931640625,-1.00469970703125,88.93751525878906,-82.76763916015625,-72.57070922851562,2022-09-07 20:13:16.7590,1662552796.7594771,-0.0015116429422050714,0.0010049974080175161,-0.0012117596343159676,-0.140975221991539,0.04434732347726822,-0.9672112464904785,
0,2022-09-07 20:13:16.2710,00:07,60,0,2022-09-07 20:13:16.7570,1662552796.7569861,0.00044341632149819316,-0.010357299795427165,-0.00776178299703594,-9.1552734375e-05,-0.0552978515625,-1.0035858154296875,88.9246826171875,-82.73025512695312,-72.230712890625,2022-09-07 20:13:16.7920,1662552796.7915359,-0.001068880083039403,-0.0017846948467195034,-8.638948202133179e-05,-0.1411125659942627,0.044423606246709824,-0.9661736488342285,
0,2022-09-07 20:13:16.2710,00:07,60,0,2022-09-07 20:13:16.7770,1662552796.776711,-0.0025814020446138057,-0.012967197663704818,-0.007121292754871883,0.00018310546875,-0.0555267333984375,-1.0037841796875,89.15164184570312,-82.842041015625,-71.84776306152344,2022-09-07 20:13:16.8200,1662552796.819796,-0.0004888435360044241,0.0002829835284501314,0.004134721122682095,-0.140059694647789,0.044316794723272324,-0.9685845971107483,
0,2022-09-07 20:13:16.2710,00:07,60,0,2022-09-07 20:13:16.7930,1662552796.792944,-0.0025814020446138057,-0.012967197663704818,-0.007121292754871883,0.000457763671875,-0.0540618896484375,-1.0045928955078125,89.15164184570312,-82.842041015625,-71.84776306152344,2022-09-07 20:13:16.8490,1662552796.849361,-0.0024261807557195425,0.0020518722012639046,-0.002591608092188835,-0.1403495967388153,0.04546119272708893,-0.9671960473060608,
0,2022-09-07 20:13:16.2710,00:07,60,0,2022-09-07 20:13:16.8110,1662552796.810736,-0.0021137509571958913,-0.010137855321604636,-0.0069806778493157,0.0011138916015625,-0.0560760498046875,-1.0038604736328125,88.95806884765625,-82.51019287109375,-71.7044677734375,2022-09-07 20:13:16.8800,1662552796.880091,0.0017513260245323181,-0.0011720196343958378,0.0008288193494081497,-0.1400596648454666,0.04462195932865143,-0.9658685326576233,
0,2022-09-07 20:13:16.2710,00:07,60,0,2022-09-07 20:13:16.8260,1662552796.8260632,-0.001268463627204741,-0.008063252832432909,-0.007116765381018748,0.0005340576171875,-0.055511474609375,-1.003875732421875,89.03524780273438,-82.54502868652344,-71.81015014648438,2022-09-07 20:13:16.9090,1662552796.9094691,-0.002073663054034114,-0.0008574922103434801,-0.0007969532161951065,-0.1419822722673416,0.04453040659427643,-0.9679132103919983,
0,2022-09-07 20:13:16.2710,00:07,60,0,2022-09-07 20:13:16.8410,1662552796.840516,-0.001268463627204741,-0.008063252832432909,-0.007116765381018748,0.0005340576171875,-0.055511474609375,-1.003875732421875,89.03224182128906,-82.76873779296875,-73.6553955078125,2022-09-07 20:13:16.9450,1662552796.944664,-0.00013035442680120468,0.0014767684042453766,0.00039188191294670105,-0.13998334109783173,0.044515129178762436,-0.9676232933998108,
0,2022-09-07 20:13:16.2710,00:07,60,0,2022-09-07 20:13:16.8570,1662552796.857013,-0.0021739383978316824,-0.011456652693411874,-0.005869873358643649,-0.0004425048828125,-0.0550079345703125,-1.0045623779296875,89.08865356445312,-82.755126953125,-72.46174621582031,2022-09-07 20:13:16.9690,1662552796.968841,-0.0011821913067251444,0.0012051558587700129,-0.00037117861211299896,-0.14005962014198303,0.044499874114990234,-0.967562198638916,
0,2022-09-07 20:13:16.2710,00:07,60,0,2022-09-07 20:13:16.8740,1662552796.87357,-0.002458364002252145,-0.011676896115561428,-0.005676794179612904,6.103515625e-05,-0.0550994873046875,-1.00408935546875,89.08865356445312,-82.755126953125,-72.46174621582031,2022-09-07 20:13:16.9990,1662552796.998713,0.0015302589163184166,-0.002385045401751995,0.003097202628850937,-0.14102090895175934,0.04440832510590553,-0.9651970863342285,
0,2022-09-07 20:13:16.2710,00:07,60,0,2022-09-07 20:13:16.8900,1662552796.890366,-2.1837920938649753e-05,-0.008966863390296795,-0.0057031594744046885,0.0003662109375,-0.055267333984375,-1.00439453125,89.06304931640625,-82.91610717773438,-70.62525939941406,2022-09-07 20:13:17.0290,1662552797.028806,-0.0033869147300720215,0.0028639216907322407,-0.00028007104992866516,-0.14039526879787445,0.04370640963315964,-0.9666314721107483,
0,2022-09-07 20:13:16.2710,00:07,60,0,2022-09-07 20:13:16.9100,1662552796.9096289,-0.0011904330072654195,-0.010994061612065112,-0.0058650796686815065,0.0006103515625,-0.0553741455078125,-1.004119873046875,88.95918273925781,-82.86973571777344,-72.44129943847656,2022-09-07 20:13:17.0590,1662552797.058587,-0.000171946594491601,0.001311831409111619,-0.001285415142774582,-0.14123450219631195,0.04463719576597214,-0.9677453637123108,
0,2022-09-07 20:13:16.2710,00:07,60,0,2022-09-07 20:13:16.9230,1662552796.923345,-0.00013875069279312832,-0.0067947892052281685,-0.0071319453992322,3.0517578125e-05,-0.0548858642578125,-1.00457763671875,89.10148620605469,-83.09848022460938,-72.382080078125,2022-09-07 20:13:17.0880,1662552797.088371,8.942699059844017e-05,-0.0017571537755429745,0.00026129838079214096,-0.14236365258693695,0.044057365506887436,-0.9686761498451233,
0,2022-09-07 20:13:16.2710,00:07,60,0,2022-09-07 20:13:16.9400,1662552796.940309,-0.0007153250687952834,-0.007527957453326983,-0.005668804696342666,9.1552734375e-05,-0.055816650390625,-1.0037841796875,88.9881591796875,-83.03475952148438,-72.39414978027344,2022-09-07 20:13:17.1180,1662552797.118104,-0.0008001297246664762,-0.0020126334857195616,0.0005672145634889603,-0.14260779321193695,0.04552220553159714,-0.9693017601966858,
0,2022-09-07 20:13:16.2710,00:07,60,0,2022-09-07 20:13:16.9570,1662552796.956647,-0.0031992554175121887,-0.01022707121812229,-0.007806257787240263,-0.0003509521484375,-0.0547637939453125,-1.0042266845703125,88.88496398925781,-82.81053161621094,-72.16128540039062,2022-09-07 20:13:17.1480,1662552797.1482859,0.0002833353355526924,0.002977945376187563,0.0009360704571008682,-0.14141760766506195,0.04538487643003464,-0.9688745141029358,
0,2022-09-07 20:13:16.2710,00:07,60,0,2022-09-07 20:13:16.9740,1662552796.973558,-0.0022280005679602907,-0.011322163058362873,-0.006063751486001417,0.0001678466796875,-0.055267333984375,-1.0042572021484375,88.88496398925781,-82.81053161621094,-72.16128540039062,2022-09-07 20:13:17.1790,1662552797.179369,-0.0006386511959135532,0.0014298497699201107,0.0028050774708390236,-0.14211948215961456,0.044408299028873444,-0.9672417640686035,
0,2022-09-07 20:13:16.2710,00:07,60,0,2022-09-07 20:13:16.9920,1662552796.991994,-0.0028706213389964107,-0.009380185991477092,-0.0057556237478792495,0.0,-0.055389404296875,-1.00408935546875,89.06927490234375,-83.22398376464844,-70.64913940429688,2022-09-07 20:13:17.2090,1662552797.208654,0.0012807543389499187,0.002538955071941018,0.0021520592272281647,-0.14057835936546326,0.04498813673853874,-0.9689355492591858,
0,2022-09-07 20:13:16.2710,00:07,60,0,2022-09-07 20:13:17.0070,1662552797.0069242,-0.001964347620042446,-0.009369267031007768,-0.007846471519700459,0.0003814697265625,-0.0555267333984375,-1.00421142578125,89.04881286621094,-82.92503356933594,-71.19075012207031,2022-09-07 20:13:17.2380,1662552797.237671,-0.0009094879496842623,-0.00010751490481197834,-0.0003791218623518944,-0.14134125411510468,0.04491183161735535,-0.966951847076416,
0,2022-09-07 20:13:16.2710,00:07,60,0,2022-09-07 20:13:17.0240,1662552797.0240731,-0.0023888554978010765,-0.010103234227433606,-0.0073881414960978225,0.0003509521484375,-0.0557861328125,-1.0035400390625,89.06881713867188,-83.05918884277344,-72.34910583496094,2022-09-07 20:13:17.2670,1662552797.2673988,0.0020769555121660233,0.0010112565942108631,0.0017190370708703995,-0.1412801891565323,0.04443879798054695,-0.9678674340248108,
0,2022-09-07 20:13:16.2710,00:07,60,0,2022-09-07 20:13:17.0400,1662552797.040117,-0.0002596582062827257,-0.008517588114400428,-0.005979329279445906,-4.57763671875e-05,-0.0554656982421875,-1.0044403076171875,89.10044860839844,-82.81170654296875,-73.65960693359375,2022-09-07 20:13:17.2980,1662552797.297543,0.000580259133130312,0.006881129927933216,-0.0025276392698287964,-0.14140227437019348,0.04588838666677475,-0.9678215980529785,
0,2022-09-07 20:13:16.2710,00:07,60,0,2022-09-07 20:13:17.0570,1662552797.057345,-0.0013118731529730328,-0.010667558062421397,-0.00793755162898117,0.000579833984375,-0.0547332763671875,-1.00360107421875,88.99703979492188,-82.91752624511719,-73.3966064453125,2022-09-07 20:13:17.3280,1662552797.3277578,0.0032798834145069122,0.0018188308458775282,-0.0020268792286515236,-0.1391134262084961,0.04436250403523445,-0.9661431908607483,
0,2022-09-07 20:13:16.2710,00:07,60,0,2022-09-07 20:13:17.0740,1662552797.073679,2.4767398137736916e-05,-0.008208395111842228,-0.006727144913540156,0.0004119873046875,-0.0558013916015625,-1.00445556640625,88.99703979492188,-82.91752624511719,-73.3966064453125,2022-09-07 20:13:17.3570,1662552797.35716,-0.0029521032702177763,0.0020200395956635475,-0.0026860423386096954,-0.1409444659948349,0.04416414350271225,-0.9662805199623108,
0,2022-09-07 20:13:16.2710,00:07,60,0,2022-09-07 20:13:17.0900,1662552797.090467,-0.0029952572780121193,-0.00695750834783201,-0.005189435700128403,0.000335693359375,-0.0558319091796875,-1.0052337646484375,89.0252685546875,-82.69723510742188,-72.41029357910156,2022-09-07 20:13:17.3870,1662552797.387111,0.0016293199732899666,0.0005554314702749252,0.0008661197498440742,-0.1400899738073349,0.04485078528523445,-0.9673486351966858,
0,2022-09-07 20:13:16.2710,00:07,60,0,2022-09-07 20:13:17.1070,1662552797.1071382,-0.001695900982162459,-0.010664095953004294,-0.006512494129679769,0.0002593994140625,-0.0560760498046875,-1.0043487548828125,89.07864379882812,-82.69808959960938,-74.24900817871094,2022-09-07 20:13:17.4170,1662552797.417286,-0.004004330839961767,0.0019346826011314988,-0.0024841362610459328,-0.1401357352733612,0.04591888561844826,-0.9681420922279358,
0,2022-09-07 20:13:16.2710,00:07,60,0,2022-09-07 20:13:17.1260,1662552797.125883,0.0002695119023160189,-0.011091000675743996,-0.0066499132419278574,3.0517578125e-05,-0.055511474609375,-1.00494384765625,89.10688781738281,-82.72904968261719,-73.62692260742188,2022-09-07 20:13:17.4470,1662552797.447274,0.0015823985449969769,-0.00033835461363196373,-0.001919385977089405,-0.1414632350206375,0.04553742706775665,-0.9679437279701233,
0,2022-09-07 20:13:16.2710,00:07,60,0,2022-09-07 20:13:17.1400,1662552797.1402988,-0.0013709953291727917,-0.009314405912552136,-0.006673082743411547,0.0003509521484375,-0.0557861328125,-1.0038299560546875,89.09378051757812,-82.91563415527344,-74.19454956054688,2022-09-07 20:13:17.4770,1662552797.476661,-0.0020106080919504166,0.0022083022631704807,-0.0032986970618367195,-0.14137166738510132,0.04549163952469826,-0.9670892357826233,
0,2022-09-07 20:13:16.2710,00:07,60,0,2022-09-07 20:13:17.1570,1662552797.157174,0.0003432814645112138,-0.012496617099087818,-0.00550288976043073,4.57763671875e-05,-0.0550384521484375,-1.005340576171875,89.10124206542969,-82.88021850585938,-74.35247802734375,2022-09-07 20:13:17.5070,1662552797.506913,-0.0005186090711504221,0.0013632448390126228,-0.0015535680577158928,-0.14144796133041382,0.04445403441786766,-0.966555118560791,
0,2022-09-07 20:13:16.2710,00:07,60,0,2022-09-07 20:13:17.1740,1662552797.1737208,-0.00248206613595385,-0.009655290532082278,-0.006579605789149766,0.000579833984375,-0.0556640625,-1.0046844482421875,89.10124206542969,-82.88021850585938,-74.35247802734375,2022-09-07 20:13:17.5360,1662552797.53638,-0.0031996131874620914,0.0016250335611402988,-0.0004824446514248848,-0.14007462561130524,0.044316694140434265,-0.9670434594154358,
0,2022-09-07 20:13:16.2710,00:07,60,0,2022-09-07 20:13:17.1910,1662552797.1905599,-0.0005587311966986242,-0.008740228381531052,-0.005265868423413677,-0.000244140625,-0.054901123046875,-1.004119873046875,89.17581176757812,-83.07044982910156,-73.73420715332031,2022-09-07 20:13:17.5660,1662552797.565887,0.0002826843410730362,-0.0018803603015840054,0.0005868710577487946,-0.14230237901210785,0.04478970915079117,-0.9683251976966858,
0,2022-09-07 20:13:16.2710,00:07,60,0,2022-09-07 20:13:17.2070,1662552797.207366,-0.002284193266960963,-0.01085824039647107,-0.007821437805453715,0.0004119873046875,-0.0552520751953125,-1.004241943359375,88.89195251464844,-82.80148315429688,-73.64340209960938,2022-09-07 20:13:17.5960,1662552797.5960279,0.002342884661629796,0.00029836525209248066,-0.002053525298833847,-0.14054758846759796,0.04549160599708557,-0.9670739769935608,
0,2022-09-07 20:13:16.2710,00:07,60,0,2022-09-07 20:13:17.2240,1662552797.2236428,0.00021038972611625982,-0.011690211921011825,-0.004927913281082622,0.0004730224609375,-0.0548553466796875,-1.0039825439453125,89.01347351074219,-82.68101501464844,-74.02458190917969,2022-09-07 20:13:17.6260,1662552797.626058,-0.005720242857933044,8.192169480025768e-05,-0.00177732203155756,-0.14027290046215057,0.04565945640206337,-0.9673181772232056,
0,2022-09-07 20:13:16.2710,00:07,60,0,2022-09-07 20:13:17.2410,1662552797.240982,-0.0010586065333064972,-0.00785419468686169,-0.0038503983040365625,0.0001068115234375,-0.0544891357421875,-1.0045013427734375,89.02406311035156,-82.662109375,-73.95552062988281,2022-09-07 20:13:17.6560,1662552797.656065,0.003022915218025446,-0.0008278139866888523,-0.0015024840831756592,-0.14150883257389069,0.044759172946214676,-0.9687371850013733,
0,2022-09-07 20:13:16.2710,00:07,60,0,2022-09-07 20:13:17.2560,1662552797.256421,-0.002604837862206503,-0.008951150739865327,-0.005977731382791858,0.0006256103515625,-0.0553131103515625,-1.00439453125,88.91761779785156,-82.72515869140625,-72.48599243164062,2022-09-07 20:13:17.6860,1662552797.6859121,-0.0009046520572155714,-0.0011090661864727736,0.0006107436493039131,-0.13970829546451569,0.045384787023067474,-0.9676080346107483,
0,2022-09-07 20:13:16.2710,00:07,60,0,2022-09-07 20:13:17.2740,1662552797.273639,-0.0010777812931550678,-0.009984989875034088,-0.005859753346501348,0.000274658203125,-0.0561065673828125,-1.00396728515625,88.91761779785156,-82.72515869140625,-72.48599243164062,2022-09-07 20:13:17.7160,1662552797.715858,0.0023422050289809704,-0.0018353401683270931,-0.00011842790991067886,-0.14222599565982819,0.04514065384864807,-0.9674554467201233,
0,2022-09-07 20:13:16.2710,00:07,60,0,2022-09-07 20:13:17.2900,1662552797.290138,-0.0020783309146978376,-0.00865980091661066,-0.007177485453872555,0.0006561279296875,-0.0552978515625,-1.0047454833984375,88.96748352050781,-82.68875122070312,-73.45703125,2022-09-07 20:13:17.7460,1662552797.7457151,0.00020164554007351398,0.0032466943375766277,0.0011368179693818092,-0.1415545791387558,0.04448452219367027,-0.9677758812904358,
0,2022-09-07 20:13:16.2710,00:07,60,0,2022-09-07 20:13:17.3080,1662552797.307904,-0.0015707324109287346,-0.00988192554084802,-0.005697034203897507,0.0004425048828125,-0.0558319091796875,-1.00396728515625,89.07553100585938,-83.03370666503906,-73.69358825683594,2022-09-07 20:13:17.7760,1662552797.775913,0.0009241609368473291,-0.0012535154819488525,0.000912579707801342,-0.14071530103683472,0.04538477584719658,-0.9675012230873108,
0,2022-09-07 20:13:16.2710,00:07,60,0,2022-09-07 20:13:17.3240,1662552797.323699,-0.003393932493196981,-0.008510131263348205,-0.007748200875476535,0.001251220703125,-0.0549774169921875,-1.00518798828125,88.96067810058594,-82.88346862792969,-74.08511352539062,2022-09-07 20:13:17.8050,1662552797.805476,-0.004705062136054039,0.0003499705344438553,0.00279998779296875,-0.14112724363803864,0.04590357095003128,-0.9687982201576233,
0,2022-09-07 20:13:16.2710,00:07,60,0,2022-09-07 20:13:17.3400,1662552797.340049,-0.003062635253591124,-0.012075038698528273,-0.006817159758384834,0.0002899169921875,-0.055694580078125,-1.0045166015625,89.0858154296875,-83.08894348144531,-73.99504089355469,2022-09-07 20:13:17.8350,1662552797.835475,-0.0012108106166124344,-0.005958056077361107,-8.227117359638214e-05,-0.14259210228919983,0.044194575399160385,-0.9665247201919556,
0,2022-09-07 20:13:16.2710,00:07,60,0,2022-09-07 20:13:17.3570,1662552797.356758,-0.002534796725537419,-0.011243333490096527,-0.0068152955456217785,0.0012969970703125,-0.0552825927734375,-1.0044097900390625,89.01080322265625,-82.70610046386719,-74.37863159179688,2022-09-07 20:13:17.8660,1662552797.865639,0.000991495093330741,0.006643361411988735,0.002224578522145748,-0.14170707762241364,0.044881220906972885,-0.9677301049232483,
0,2022-09-07 20:13:16.2710,00:07,60,0,2022-09-07 20:13:17.3740,1662552797.373738,-0.0023465112364688167,-0.011095794365706138,-0.00427144407237809,-0.0002899169921875,-0.0552520751953125,-1.0042572021484375,89.01080322265625,-82.70610046386719,-74.37863159179688,2022-09-07 20:13:17.8950,1662552797.895266,-0.0016002932097762823,-0.0007181481923907995,0.0019611911848187447,-0.14048635959625244,0.045384760946035385,-0.9674096703529358,
0,2022-09-07 20:13:16.2710,00:07,60,0,2022-09-07 20:13:17.3900,1662552797.390315,-0.0016269251099294067,-0.009162073098199603,-0.006736465977355433,6.103515625e-05,-0.05572509765625,-1.00518798828125,88.89639282226562,-82.57255554199219,-74.09812927246094,2022-09-07 20:13:17.9250,1662552797.925113,0.0004045441746711731,0.007679746951907873,-0.0004001772031188011,-0.14184430241584778,0.047383639961481094,-0.9669366478919983,
0,2022-09-07 20:13:16.2710,00:07,60,0,2022-09-07 20:13:17.4070,1662552797.406903,-0.00336969772727726,-0.011428423185857035,-0.0049628006913626605,9.1552734375e-05,-0.0553436279296875,-1.0046539306640625,88.91874694824219,-82.6429443359375,-74.28152465820312,2022-09-07 20:13:17.9550,1662552797.954938,-0.00188980414532125,-0.006277251057326794,-0.0008571082726120949,-0.13958606123924255,0.04370628669857979,-0.9669366478919983,
0,2022-09-07 20:13:16.2710,00:07,60,0,2022-09-07 20:13:17.4240,1662552797.423516,-0.0031164311076107244,-0.0050616039678046,-0.0037976677144529935,0.0002288818359375,-0.0548858642578125,-1.00445556640625,88.86912536621094,-82.74629211425781,-74.62834167480469,2022-09-07 20:13:17.9850,1662552797.984919,-5.455431528389454e-05,0.007690940983593464,0.001299678348004818,-0.14211896061897278,0.044438686221838,-0.9671503305435181,
0,2022-09-07 20:13:16.2710,00:07,60,0,2022-09-07 20:13:17.4400,1662552797.440234,-0.0012468920223750993,-0.011128284931005105,-0.007709318723561379,3.0517578125e-05,-0.0559844970703125,-1.004638671875,89.02496337890625,-83.08198547363281,-75.07611083984375,2022-09-07 20:13:18.0150,1662552798.014771,-0.004235983360558748,-0.003337208880111575,-0.0018335310742259026,-0.14013530313968658,0.0451863631606102,-0.9678674936294556,
0,2022-09-07 20:13:16.2710,00:07,60,0,2022-09-07 20:13:17.4570,1662552797.456959,-0.001579520842525996,-0.011198858699892204,-0.00492817959719163,0.000274658203125,-0.05517578125,-1.00421142578125,89.0751953125,-82.93937683105469,-75.06472778320312,2022-09-07 20:13:18.0450,1662552798.0451021,-0.0008763356599956751,0.0012493025278672576,-0.0026562251150608063,-0.1429581642150879,0.0457967109978199,-0.9674554467201233,
0,2022-09-07 20:13:16.2710,00:07,60,0,2022-09-07 20:13:17.4740,1662552797.4736562,0.0002479402974863771,-0.01021295646434487,-0.004794222594360645,0.00030517578125,-0.0555267333984375,-1.004241943359375,88.85516357421875,-82.68963623046875,-74.37783813476562,2022-09-07 20:13:18.0750,1662552798.074856,0.0015366892330348492,0.0035381882917135954,-0.002478313632309437,-0.1412491500377655,0.0449574738740921,-0.9666314721107483,
0,2022-09-07 20:13:16.2710,00:07,60,0,2022-09-07 20:13:17.4900,1662552797.490251,-1.9707392066586363e-05,-0.012209528333577276,-0.004428037944474749,0.000396728515625,-0.0555267333984375,-1.004364013671875,88.85516357421875,-82.68963623046875,-74.37783813476562,2022-09-07 20:13:18.1050,1662552798.104533,-0.0012442073784768581,-0.002737485570833087,-0.0006835879758000374,-0.140684574842453,0.043462108820676804,-0.9680200815200806,
0,2022-09-07 20:13:16.2710,00:07,60,0,2022-09-07 20:13:17.5070,1662552797.50705,-0.0019872508054171274,-0.010357033479318158,-0.002655970555136024,0.000152587890625,-0.0554656982421875,-1.0044403076171875,89.143798828125,-82.94349670410156,-74.03730773925781,2022-09-07 20:13:18.1340,1662552798.134307,0.0008407812565565109,-0.0023326852824538946,0.0021478841081261635,-0.1410965472459793,0.046864815056324005,-0.9671808481216431,
0,2022-09-07 20:13:16.2710,00:07,60,0,2022-09-07 20:13:17.5240,1662552797.52383,0.0003699130754120062,-0.009501359821075698,-0.004695153001809697,9.1552734375e-05,-0.0560150146484375,-1.0042572021484375,88.945556640625,-82.66871643066406,-74.86827087402344,2022-09-07 20:13:18.1640,1662552798.164205,-0.0017469760496169329,0.0012717494973912835,0.00012628082185983658,-0.14178316295146942,0.04568987712264061,-0.9681879281997681,
0,2022-09-07 20:13:16.2710,00:07,60,0,2022-09-07 20:13:17.5410,1662552797.5411139,-0.002639192640268525,-0.008217982491766513,-0.004905809044034965,0.00067138671875,-0.0555877685546875,-1.0042572021484375,89.08183288574219,-83.04847717285156,-74.96005249023438,2022-09-07 20:13:18.1940,1662552798.19419,-0.0009571716655045748,0.002989857690408826,-0.0012183748185634613,-0.14138643443584442,0.04523210600018501,-0.9667688608169556,
0,2022-09-07 20:13:16.2710,00:07,60,0,2022-09-07 20:13:17.5580,1662552797.5584679,0.0003938815252227193,-0.011010573210823603,-0.00606215358934737,-0.000274658203125,-0.05487060546875,-1.004791259765625,89.06321716308594,-82.86288452148438,-74.91810607910156,2022-09-07 20:13:18.2240,1662552798.224396,0.0009037666022777557,0.002209688536822796,0.0009286096319556236,-0.14089816808700562,0.044591233134269714,-0.9672570824623108,
0,2022-09-07 20:13:16.2710,00:07,60,0,2022-09-07 20:13:17.5760,1662552797.576431,-0.0032519860070957577,-0.009076052994990045,-0.005830458574510476,-0.0001068115234375,-0.0551605224609375,-1.003936767578125,89.08206176757812,-82.90817260742188,-74.61770629882812,2022-09-07 20:13:18.2540,1662552798.2539148,7.072975859045982e-05,-6.598257459700108e-05,8.864793926477432e-05,-0.14112702012062073,0.04401138424873352,-0.9685998558998108,
0,2022-09-07 20:13:16.2710,00:07,60,0,2022-09-07 20:13:17.5930,1662552797.5925388,-0.0023715449507155616,-0.00764114179965535,-0.006517287819641912,0.000244140625,-0.054595947265625,-1.0050201416015625,89.08206176757812,-82.90817260742188,-74.61770629882812,2022-09-07 20:13:18.2840,1662552798.283931,0.00044551026076078415,-0.0018737793434411287,-0.002453116700053215,-0.14044032990932465,0.045521996915340424,-0.9685998558998108,
0,2022-09-07 20:13:16.2710,00:07,60,0,2022-09-07 20:13:17.6090,1662552797.609165,0.001604554556772741,-0.009264604800167654,-0.006489590944305088,0.0004425048828125,-0.0551910400390625,-1.004364013671875,89.15879821777344,-82.99955749511719,-74.42515563964844,2022-09-07 20:13:18.3140,1662552798.313974,-0.0008733973372727633,0.03555185720324516,-0.05669581517577171,-0.1416306048631668,0.04340105131268501,-0.9684167504310608,
0,2022-09-07 20:13:16.2710,00:07,60,0,2022-09-07 20:13:17.6260,1662552797.6260362,-0.0019968381853414127,-0.01046169571015827,-0.00445493587148455,6.103515625e-05,-0.05560302734375,-1.004241943359375,89.11651611328125,-83.0211181640625,-74.55171203613281,2022-09-07 20:13:18.3440,1662552798.343535,-0.08447473496198654,-0.15610653162002563,-0.09411056339740753,-0.123930424451828,0.019780457019805908,-0.9682641625404358,
0,2022-09-07 20:13:16.2710,00:07,60,0,2022-09-07 20:13:17.6430,1662552797.642642,-0.0006295712816947319,-0.010079798409840909,-0.0060395167200816965,0.0005645751953125,-0.0552520751953125,-1.00421142578125,89.06388854980469,-82.77592468261719,-75.18182373046875,2022-09-07 20:13:18.3740,1662552798.373702,0.0016175433993339539,0.09270542860031128,-0.01110010128468275,-0.1668223738670349,0.035130731761455536,-0.9707819819450378,
0,2022-09-07 20:13:16.2710,00:07,60,0,2022-09-07 20:13:17.6590,1662552797.6593451,0.0010255833357895147,-0.010267551266691495,-0.005731921614177544,-9.1552734375e-05,-0.056121826171875,-1.0058746337890625,89.00141906738281,-82.77890014648438,-74.83450317382812,2022-09-07 20:13:18.4030,1662552798.403307,-0.02999630942940712,-0.0723639577627182,-0.009817361831665039,-0.12858416140079498,0.03337603807449341,-0.9636255502700806,
0,2022-09-07 20:13:16.2710,00:07,60,0,2022-09-07 20:13:17.6760,1662552797.6759539,-0.0016295882710194859,-0.010526410524647197,-0.006145776847575858,0.00030517578125,-0.055816650390625,-1.004608154296875,89.21340942382812,-82.78691101074219,-74.74859619140625,2022-09-07 20:13:18.4330,1662552798.433461,-0.03770402818918228,-0.20208173990249634,-0.005516889970749617,-0.1276225447654724,0.05275468900799751,-0.9558740854263306,
0,2022-09-07 20:13:16.2710,00:07,60,0,2022-09-07 20:13:17.6930,1662552797.692694,-0.0016234630005123036,-0.012222844139027671,-0.007442736298444447,0.000335693359375,-0.05560302734375,-1.0042877197265625,89.21340942382812,-82.78691101074219,-74.74859619140625,2022-09-07 20:13:18.4640,1662552798.464075,0.0453873947262764,0.15456080436706543,0.0011085225269198418,-0.17168967425823212,0.04648328199982643,-0.9710566401481628,
0,2022-09-07 20:13:16.2710,00:07,60,0,2022-09-07 20:13:17.7090,1662552797.70942,-0.001293763657560494,-0.010591924287463146,-0.006086388355267091,-9.1552734375e-05,-0.0558929443359375,-1.0037841796875,88.97695922851562,-82.62579345703125,-74.27906799316406,2022-09-07 20:13:18.4930,1662552798.493144,-0.0191109050065279,-0.08430370688438416,0.0029168082401156425,-0.1236705482006073,0.037877406924963,-0.9622523188591003,
0,2022-09-07 20:13:16.2710,00:07,60,0,2022-09-07 20:13:17.7260,1662552797.726038,-0.0012942962897785097,-0.010638529606539533,-0.007302920341215287,0.0004119873046875,-0.0552215576171875,-1.00506591796875,89.13780212402344,-82.70452880859375,-74.60185241699219,2022-09-07 20:13:18.5230,1662552798.5229092,0.019679633900523186,0.06260424852371216,0.0017373999580740929,-0.15383705496788025,0.050282783806324005,-0.9690424799919128,
0,2022-09-07 20:13:16.2710,00:07,60,0,2022-09-07 20:13:17.7430,1662552797.74263,0.0006583334214675877,-0.00972692956540541,-0.005722866866471275,0.000457763671875,-0.0554046630859375,-1.0033721923828125,89.13255310058594,-82.77374267578125,-74.6712646484375,2022-09-07 20:13:18.5530,1662552798.552916,-0.0033681602217257023,-0.034170232713222504,0.0019474178552627563,-0.13488571345806122,0.04330955073237419,-0.9666163325309753,
0,2022-09-07 20:13:16.2710,00:07,60,0,2022-09-07 20:13:17.7590,1662552797.7593489,-0.0025675536069453934,-0.0070507189859847835,-0.00588638495740214,0.0008392333984375,-0.055877685546875,-1.00469970703125,88.9716796875,-82.69612121582031,-74.85740661621094,2022-09-07 20:13:18.5830,1662552798.582693,0.001817014068365097,0.025870734825730324,-0.0014554103836417198,-0.14930522441864014,0.049458831548690796,-0.9682794809341431,
0,2022-09-07 20:13:16.2710,00:07,60,0,2022-09-07 20:13:17.7760,1662552797.775875,-0.0010578075849794735,-0.00971414639217303,-0.008056062297489695,-0.00018310546875,-0.0546875,-1.0041656494140625,89.039306640625,-83.03807067871094,-74.43844604492188,2022-09-07 20:13:18.6130,1662552798.612689,-0.006003092043101788,-0.01970846764743328,-0.004114310257136822,-0.13915811479091644,0.042607631534338,-0.9664331674575806,
0,2022-09-07 20:13:16.2710,00:07,60,0,2022-09-07 20:13:17.7930,1662552797.792749,-9.294432204376542e-05,-0.008110390783727313,-0.007135407508649303,-0.0003204345703125,-0.0555572509765625,-1.004486083984375,89.039306640625,-83.03807067871094,-74.43844604492188,2022-09-07 20:13:18.6430,1662552798.6426091,0.0025376658886671066,0.008795078843832016,0.0010886546224355698,-0.14544475078582764,0.046727512031793594,-0.9679285287857056,
0,2022-09-07 20:13:16.2710,00:07,60,0,2022-09-07 20:13:17.8100,1662552797.810089,-0.0025704830841444806,-0.009167399420379762,-0.007723966109556815,0.0005035400390625,-0.0554962158203125,-1.00469970703125,89.0391845703125,-82.76725769042969,-73.13671875,2022-09-07 20:13:18.6720,1662552798.672298,0.0019142194651067257,-0.007103992626070976,-0.0024216054007411003,-0.14204201102256775,0.0445607528090477,-0.9664332270622253,
0,2022-09-07 20:13:16.2710,00:07,60,0,2022-09-07 20:13:17.8260,1662552797.826159,-0.0013747237546989028,-0.008778045269010177,-0.009526393535322444,0.0005645751953125,-0.055511474609375,-1.0047760009765625,88.85722351074219,-82.75830078125,-74.60723876953125,2022-09-07 20:13:18.7020,1662552798.702369,-9.859749116003513e-05,0.005234698764979839,-0.0003676675260066986,-0.14251501858234406,0.046239223331213,-0.9685694575309753,
0,2022-09-07 20:13:16.2710,00:07,60,0,2022-09-07 20:13:17.8430,1662552797.842644,-0.0018010958452205888,-0.015039669624004482,-0.008877913809888149,0.000335693359375,-0.055419921875,-1.00506591796875,88.99473571777344,-82.8975830078125,-74.3619384765625,2022-09-07 20:13:18.7320,1662552798.732329,-0.005842503160238266,-0.0072789620608091354,-0.004275590181350708,-0.14343054592609406,0.042516060173511505,-0.9683863520622253,
0,2022-09-07 20:13:16.2710,00:07,60,0,2022-09-07 20:13:17.8590,1662552797.859333,-0.0018722022463257045,-0.013943512519327867,-0.006157761072481215,0.0001373291015625,-0.0553741455078125,-1.004364013671875,89.03947448730469,-82.53083801269531,-74.3709716796875,2022-09-07 20:13:18.7620,1662552798.762217,-0.0027825310826301575,5.8845384046435356e-05,-0.0035596266388893127,-0.14361365139484406,0.045033764094114304,-0.9693629145622253,
0,2022-09-07 20:13:16.2710,00:07,60,0,2022-09-07 20:13:17.8760,1662552797.8759751,-0.001506816544766833,-0.009768208562301638,-0.006429403503669297,0.0003814697265625,-0.05535888671875,-1.0049591064453125,89.03030395507812,-82.5731201171875,-74.67134094238281,2022-09-07 20:13:18.7920,1662552798.7922559,-0.003149780910462141,-0.008158604614436626,-0.0006455965340137482,-0.14280493557453156,0.042424507439136505,-0.9663110971450806,
0,2022-09-07 20:13:16.2710,00:07,60,0,2022-09-07 20:13:17.8930,1662552797.8926601,-0.0029039108526224015,-0.010639861187084572,-0.007892810522667838,0.000213623046875,-0.0556182861328125,-1.0046539306640625,88.98240661621094,-82.68980407714844,-74.07443237304688,2022-09-07 20:13:18.8220,1662552798.821927,-0.003935147076845169,0.005752417258918285,-0.006525589618831873,-0.14394934475421906,0.04327896982431412,-0.9676386117935181,
0,2022-09-07 20:13:16.2710,00:07,60,0,2022-09-07 20:13:17.9090,1662552797.909357,-0.002385127072274966,-0.010137589005495629,-0.005193430441763522,0.000640869140625,-0.0546112060546875,-1.005401611328125,88.98240661621094,-82.68980407714844,-74.07443237304688,2022-09-07 20:13:18.8520,1662552798.8517041,0.008232569321990013,-0.003179292194545269,8.863769471645355e-05,-0.14402559399604797,0.04370621219277382,-0.9687067270278931,
0,2022-09-07 20:13:16.2710,00:07,60,0,2022-09-07 20:13:17.9260,1662552797.9259958,-0.0015222628790892926,-0.012631905682463843,-0.004890895341930521,0.000244140625,-0.05584716796875,-1.0037994384765625,88.97891235351562,-82.55258178710938,-74.64134216308594,2022-09-07 20:13:18.8820,1662552798.88165,0.004319054074585438,0.014062278904020786,0.0015862388536334038,-0.14361365139484406,0.047795601189136505,-0.9672876596450806,
0,2022-09-07 20:13:16.2710,00:07,60,0,2022-09-07 20:13:17.9430,1662552797.9427009,-0.0001462075438453502,-0.009578325176578988,-0.0076531260245607064,0.0005645751953125,-0.055206298828125,-1.004150390625,89.02587890625,-83.00721740722656,-74.32196044921875,2022-09-07 20:13:18.9120,1662552798.911532,-0.004282956477254629,-0.005128726363182068,-0.0010799579322338104,-0.14138585329055786,0.044453926384449005,-0.9665400385856628,
0,2022-09-07 20:13:16.2710,00:07,60,0,2022-09-07 20:13:17.9590,1662552797.9592218,-0.0029838056853247787,-0.012186092515984579,-0.008379103737716307,-0.0001678466796875,-0.0551910400390625,-1.00543212890625,89.14598083496094,-82.99755859375,-74.74220275878906,2022-09-07 20:13:18.9420,1662552798.94186,0.0020609600469470024,0.006267206277698278,-0.001441720873117447,-0.14288121461868286,0.044011425226926804,-0.9680353999137878,
0,2022-09-07 20:13:16.2710,00:07,60,0,2022-09-07 20:13:17.9760,1662552797.975992,-0.002024002428460221,-0.009884322385829092,-0.00664698376472877,-0.0001983642578125,-0.0543060302734375,-1.003631591796875,89.02719116210938,-82.69255065917969,-74.76324462890625,2022-09-07 20:13:18.9710,1662552798.971123,-0.0004488029517233372,-0.0035537327639758587,-0.0004305187612771988,-0.14285066723823547,0.04472858086228371,-0.9666163325309753,
0,2022-09-07 20:13:16.2710,00:07,60,0,2022-09-07 20:13:17.9930,1662552797.992878,0.00027430559227816154,-0.00914076780947897,-0.007093595879535059,0.001190185546875,-0.0550079345703125,-1.005584716796875,89.04177856445312,-82.51271057128906,-74.16819763183594,2022-09-07 20:13:19.0010,1662552799.001446,-0.00037396838888525963,0.004127089865505695,-0.0013405205681920052,-0.14425450563430786,0.044896434992551804,-0.9674097895622253,
0,2022-09-07 20:13:16.2710,00:07,60,0,2022-09-07 20:13:18.0090,1662552798.0085092,-0.0006274407528226685,-0.011009241630278563,-0.0077170418907226085,-0.0004119873046875,-0.055877685546875,-1.0047149658203125,89.04177856445312,-82.51271057128906,-74.16819763183594,2022-09-07 20:13:19.0310,1662552799.031005,0.004606675356626511,-0.0022112331353127956,0.003938663750886917,-0.14350679516792297,0.0454915389418602,-0.9661280512809753,
0,2022-09-07 20:13:16.2710,00:07,60,0,2022-09-07 20:13:18.0270,1662552798.026854,-0.0010985539496576858,-0.009828662319046437,-0.006587062640201988,0.000152587890625,-0.054931640625,-1.0051116943359375,88.94500732421875,-82.51739501953125,-74.1561279296875,2022-09-07 20:13:19.0610,1662552799.061029,0.001341107301414013,0.002901769708842039,-0.005183250177651644,-0.1441933959722519,0.045888274908065796,-0.9681727290153503,
0,2022-09-07 20:13:16.2710,00:07,60,0,2022-09-07 20:13:18.0430,1662552798.043023,-0.0013539510981962846,-0.007063502159217164,-0.007192665472086007,0.000885009765625,-0.055938720703125,-1.003875732421875,89.00141906738281,-82.51255798339844,-73.6585693359375,2022-09-07 20:13:19.0920,1662552799.091644,0.004128637723624706,0.0010375569108873606,-0.00033469870686531067,-0.14376619458198547,0.04359947144985199,-0.9663264155387878,
0,2022-09-07 20:13:16.2710,00:07,60,0,2022-09-07 20:13:18.0590,1662552798.0593638,-0.0006269081206046527,-0.008556470266315584,-0.006870422980186418,0.0001068115234375,-0.0553436279296875,-1.0042724609375,88.99276733398438,-82.51522827148438,-74.21775817871094,2022-09-07 20:13:19.1210,1662552799.1209512,-0.0015193938743323088,0.00031584035605192184,0.0007918169721961021,-0.14161472022533417,0.04546104744076729,-0.9683862924575806,
0,2022-09-07 20:13:16.2710,00:07,60,0,2022-09-07 20:13:18.0760,1662552798.076154,-0.0033406692713953963,-0.010366620859242443,-0.006940996749073518,0.000335693359375,-0.055389404296875,-1.0047454833984375,89.09211730957031,-82.71659851074219,-74.45933532714844,2022-09-07 20:13:19.1510,1662552799.150621,-0.0004967402201145887,-0.0016879220493137836,-0.001988522708415985,-0.14368987083435059,0.044179290533065796,-0.9676691889762878,
0,2022-09-07 20:13:16.2710,00:07,60,0,2022-09-07 20:13:18.0930,1662552798.092797,-0.003761448723627916,-0.010849718280982816,-0.007127151709270058,0.0009002685546875,-0.0554656982421875,-1.0057220458984375,89.05319213867188,-82.63919067382812,-73.78414916992188,2022-09-07 20:13:19.1810,1662552799.180904,0.00267881341278553,-0.002400051336735487,-0.0004052193835377693,-0.14523102343082428,0.04472861438989639,-0.9687067270278931,
0,2022-09-07 20:13:16.2710,00:07,60,0,2022-09-07 20:13:18.1090,1662552798.109328,0.0006109291540641773,-0.010995393192610151,-0.007703459769163205,4.57763671875e-05,-0.055938720703125,-1.004150390625,89.05319213867188,-82.63919067382812,-73.78414916992188,2022-09-07 20:13:19.2110,1662552799.210849,0.0019416501745581627,-0.00015527289360761642,0.0009085182100534439,-0.1422097384929657,0.0432637557387352,-0.9675013422966003,
0,2022-09-07 20:13:16.2710,00:07,60,0,2022-09-07 20:13:18.1260,1662552798.126216,-0.0015614113471134573,-0.008629440880183756,-0.005385178040249228,-1.52587890625e-05,-0.054962158203125,-1.0050811767578125,89.04348754882812,-82.83370971679688,-73.62728881835938,2022-09-07 20:13:19.2400,1662552799.240242,-0.0016277844551950693,-0.0010301214642822742,0.0006721364334225655,-0.1417825073003769,0.0440724715590477,-0.9675471186637878,
0,2022-09-07 20:13:16.2710,00:07,60,0,2022-09-07 20:13:18.1420,1662552798.141842,-0.0009760485395140408,-0.009987120403906152,-0.005905027085032695,0.000823974609375,-0.05511474609375,-1.00372314453125,89.05508422851562,-82.68327331542969,-73.72938537597656,2022-09-07 20:13:19.2700,1662552799.270082,-2.3230211809277534e-05,0.00317847216501832,-0.0013803625479340553,-0.1451089233160019,0.045003246515989304,-0.9681116938591003,
0,2022-09-07 20:13:16.2710,00:07,60,0,2022-09-07 20:13:18.1580,1662552798.15834,0.00032996565906081763,-0.011179683940043634,-0.00659318791070917,-0.0003204345703125,-0.0552520751953125,-1.0041656494140625,89.13929748535156,-82.82902526855469,-73.70729064941406,2022-09-07 20:13:19.3000,1662552799.299994,0.0010481597855687141,-8.869380690157413e-05,0.0033393967896699905,-0.1433999091386795,0.04422504082322121,-0.9688593745231628,
0,2022-09-07 20:13:16.2710,00:07,60,0,2022-09-07 20:13:18.1740,1662552798.173666,-0.00013102752563189853,-0.010351707157137999,-0.007500793210208174,0.000946044921875,-0.0554351806640625,-1.00421142578125,89.05496215820312,-83.09095764160156,-72.94779968261719,2022-09-07 20:13:19.3300,1662552799.329884,-6.185844540596008e-06,-0.00013450020924210548,0.00016171298921108246,-0.14079062640666962,0.04529314115643501,-0.9675470590591431,
0,2022-09-07 20:13:16.2710,00:07,60,0,2022-09-07 20:13:18.1900,1662552798.190014,-0.0032810144629776216,-0.010912302566599679,-0.00664698376472877,0.0007476806640625,-0.055572509765625,-1.0058135986328125,89.05496215820312,-83.09095764160156,-72.94779968261719,2022-09-07 20:13:19.3600,1662552799.359756,0.0017914478667080402,-0.0010359804145991802,0.00039266422390937805,-0.14126363396644592,0.04459123685956001,-0.9675166010856628,
0,2022-09-07 20:13:16.2710,00:07,60,0,2022-09-07 20:13:18.2070,1662552798.206867,-0.0033553166573908324,-0.012269715774213066,-0.005929261850952416,0.000701904296875,-0.0561065673828125,-1.003448486328125,89.27140808105469,-82.77151489257812,-72.71308898925781,2022-09-07 20:13:19.3900,1662552799.3896751,0.00021245935931801796,-0.0005337081383913755,-0.004029781557619572,-0.14419327676296234,0.044560715556144714,-0.9666315913200378,
0,2022-09-07 20:13:16.2710,00:07,60,0,2022-09-07 20:13:18.2230,1662552798.22347,0.00020026971397395872,-0.010755975010612028,-0.0070187610529038325,-0.0003662109375,-0.0551910400390625,-1.004974365234375,89.19795227050781,-82.69926452636719,-72.85845947265625,2022-09-07 20:13:19.4240,1662552799.424082,0.0007067425176501274,0.002089771907776594,-0.0006557172164320946,-0.14295731484889984,0.04552202671766281,-0.9676081538200378,
0,2022-09-07 20:13:16.2710,00:07,60,0,2022-09-07 20:13:18.2400,1662552798.240128,-0.0012780510071290264,-0.008180964552614411,-0.007134075928104264,0.0008392333984375,-0.0552978515625,-1.003814697265625,89.20759582519531,-82.74435424804688,-73.52513122558594,2022-09-07 20:13:19.4500,1662552799.449501,-0.0024597560986876488,-0.00066553452052176,-0.0007955329492688179,-0.14310991764068604,0.04529314860701561,-0.9688441157341003,
0,2022-09-07 20:13:16.2710,00:07,60,0,2022-09-07 20:13:18.2570,1662552798.2566981,-0.0024463797773467883,-0.008544486041410228,-0.009015599238245246,0.000274658203125,-0.0556793212890625,-1.00347900390625,89.34211730957031,-83.00518798828125,-73.395263671875,2022-09-07 20:13:19.4800,1662552799.479506,0.0009498889558017254,-0.0002556741237640381,-0.0025658411905169487,-0.14286574721336365,0.04410295560956001,-0.9675928950309753,
0,2022-09-07 20:13:16.2710,00:07,60,0,2022-09-07 20:13:18.2730,1662552798.273339,-0.0006263754883866368,-0.009944509826464883,-0.006020075644124118,7.62939453125e-05,-0.054718017578125,-1.0052337646484375,89.15568542480469,-82.78819274902344,-73.71635437011719,2022-09-07 20:13:19.5090,1662552799.5093122,-0.0010168554726988077,-0.0010239961557090282,-0.00028420519083738327,-0.14172132313251495,0.04546097666025162,-0.9696070551872253,
0,2022-09-07 20:13:16.2710,00:07,60,0,2022-09-07 20:13:18.2900,1662552798.289994,-0.0008921589651765448,-0.011114969125554708,-0.006505836226954571,6.103515625e-05,-0.0553741455078125,-1.004425048828125,89.15568542480469,-82.78819274902344,-73.71635437011719,2022-09-07 20:13:19.5390,1662552799.539194,0.0021365932188928127,-0.0015864558517932892,0.003468722105026245,-0.14294199645519257,0.044057153165340424,-0.9696986079216003,
0,2022-09-07 20:13:16.2710,00:07,60,0,2022-09-07 20:13:18.3070,1662552798.306752,-0.0012663330983326778,-0.00970882006999287,-0.0061415157898317314,0.000396728515625,-0.0553436279296875,-1.0042572021484375,88.97244262695312,-83.06819152832031,-70.97117614746094,2022-09-07 20:13:19.5690,1662552799.56898,-0.005151945631951094,-0.002674623392522335,-0.0016227103769779205,-0.14339977502822876,0.04594924673438072,-0.9695307612419128,
0,2022-09-07 20:13:16.2710,00:07,60,0,2022-09-07 20:13:18.3240,1662552798.323744,-0.00028975192660062114,-0.013024721943250531,-0.007650196547361619,0.000335693359375,-0.0560150146484375,-1.005279541015625,89.13735961914062,-82.61270141601562,-73.07987976074219,2022-09-07 20:13:19.5990,1662552799.5988688,0.0016284622251987457,-0.0020405245013535023,-0.0014661168679594994,-0.14320135116577148,0.04573560506105423,-0.9689204692840576,
0,2022-09-07 20:13:16.2710,00:07,60,0,2022-09-07 20:13:18.3400,1662552798.3402991,-0.0001017327536410269,-0.007610249131010431,-0.004818989992498381,0.000152587890625,-0.0552978515625,-1.0046539306640625,89.13092041015625,-82.83488464355469,-73.31983947753906,2022-09-07 20:13:19.6290,1662552799.628809,0.001917149405926466,0.0009512705728411674,0.0008740033954381943,-0.1422400325536728,0.04579664021730423,-0.9667231440544128,
0,2022-09-07 20:13:16.2710,00:07,60,0,2022-09-07 20:13:18.3570,1662552798.356907,-0.0020943098812383127,-0.009482451377336136,-0.005748965845154052,9.1552734375e-05,-0.05499267578125,-1.0036163330078125,89.12330627441406,-83.09561157226562,-72.33879089355469,2022-09-07 20:13:19.6590,1662552799.658671,-0.0010570692829787731,0.0008804304525256157,0.0005385559052228928,-0.1431860625743866,0.04474378377199173,-0.9663264155387878,
0,2022-09-07 20:13:16.2710,00:07,60,0,2022-09-07 20:13:18.3740,1662552798.373534,-0.0013938985145474732,-0.012229768357861878,-0.006087719935812131,0.0002899169921875,-0.0559234619140625,-1.00372314453125,88.90760803222656,-82.88946533203125,-74.24409484863281,2022-09-07 20:13:19.6890,1662552799.688587,-0.0027508395723998547,-0.002169954124838114,0.0002978062257170677,-0.14268247783184052,0.043874021619558334,-0.9687525629997253,
0,2022-09-07 20:13:16.2710,00:07,60,0,2022-09-07 20:13:18.3900,1662552798.389991,-0.0020666130059014886,-0.010959706834003088,-0.0055851814381141784,0.000640869140625,-0.056243896484375,-1.0036468505859375,88.90760803222656,-82.88946533203125,-74.24409484863281,2022-09-07 20:13:19.7180,1662552799.7184792,-0.0004053935408592224,0.004024292342364788,-0.0005311444401741028,-0.14286552369594574,0.04459116980433464,-0.9689051508903503,
0,2022-09-07 20:13:16.2710,00:07,60,0,2022-09-07 20:13:18.4070,1662552798.406596,0.00030706247368613614,-0.010908840457182576,-0.007848602048572522,-0.0002899169921875,-0.054962158203125,-1.0037841796875,89.08485412597656,-82.99546813964844,-72.73477172851562,2022-09-07 20:13:19.7480,1662552799.748384,-0.004247804172337055,0.0012588656973093748,-0.004384767264127731,-0.14268241822719574,0.04291270673274994,-0.9672725200653076,
0,2022-09-07 20:13:16.2710,00:07,60,0,2022-09-07 20:13:18.4230,1662552798.4234219,-0.002191515261026205,-0.01219221778649176,-0.005835784896690635,0.000518798828125,-0.05499267578125,-1.0051116943359375,89.27049255371094,-82.89930725097656,-73.85877990722656,2022-09-07 20:13:19.7780,1662552799.778445,-0.0015553203411400318,0.000791480764746666,0.00255496334284544,-0.14184316992759705,0.04410287365317345,-0.9689052104949951,
0,2022-09-07 20:13:16.2710,00:07,60,0,2022-09-07 20:13:18.4400,1662552798.4401941,-0.0007811051477202406,-0.011929097470791931,-0.0056336509699536205,-0.000152587890625,-0.05474853515625,-1.0039520263671875,89.26634216308594,-82.75244140625,-73.49034118652344,2022-09-07 20:13:19.8080,1662552799.808381,0.0028226501308381557,-0.00014621810987591743,-0.00043123960494995117,-0.14347584545612335,0.04459115490317345,-0.9666316509246826,
0,2022-09-07 20:13:16.2710,00:07,60,0,2022-09-07 20:13:18.4570,1662552798.456985,-0.0020506340393610135,-0.011800999422359121,-0.0048424258100910784,-0.000213623046875,-0.05511474609375,-1.0052032470703125,89.17378234863281,-83.0074462890625,-74.07633972167969,2022-09-07 20:13:19.8380,1662552799.837965,-0.0005596836563199759,0.0015617009485140443,-0.000697670504450798,-0.14324694871902466,0.044728465378284454,-0.9669215083122253,
0,2022-09-07 20:13:16.2710,00:07,60,0,2022-09-07 20:13:18.4740,1662552798.473752,-0.0024525050478539706,-0.00903157820478572,-0.005173723049696936,0.00018310546875,-0.0553741455078125,-1.005126953125,89.14692687988281,-82.54489135742188,-72.83218383789062,2022-09-07 20:13:19.8680,1662552799.86783,0.0020461687818169594,-0.0014442484825849533,-0.002300950698554516,-0.14237715303897858,0.04381292313337326,-0.9680049419403076,
0,2022-09-07 20:13:16.2710,00:07,60,0,2022-09-07 20:13:18.4900,1662552798.490411,-0.10930651746510324,0.13316551135501414,-0.011121094396061891,-0.000457763671875,-0.0559844970703125,-0.995086669921875,89.06306457519531,-82.72991943359375,-73.18899536132812,2022-09-07 20:13:19.8980,1662552799.897838,0.003115464933216572,-0.001203416846692562,0.0005444679409265518,-0.14295697212219238,0.04445379972457886,-0.9669063091278076,
0,2022-09-07 20:13:16.2710,00:07,60,0,2022-09-07 20:13:18.5070,1662552798.5070372,-0.044793304270696756,0.04358955545798094,-0.0064493772118448915,0.012359619140625,-0.0486297607421875,-1.087554931640625,89.06306457519531,-82.72991943359375,-73.18899536132812,2022-09-07 20:13:19.9280,1662552799.927765,-0.0004076310433447361,-0.00024734227918088436,-4.382431507110596e-05,-0.1441929042339325,0.043919727206230164,-0.9686304926872253,
0,2022-09-07 20:13:16.2710,00:07,60,0,2022-09-07 20:13:18.5240,1662552798.5238662,0.010151171127055032,-0.0257751382942229,-0.004256264054164638,0.000946044921875,-0.056060791015625,-1.005767822265625,89.02909851074219,-82.59159851074219,-73.13446044921875,2022-09-07 20:13:19.9580,1662552799.957598,-0.0008832402527332306,0.0013812781544402242,0.001985195092856884,-0.143536776304245,0.044118091464042664,-0.9680659174919128,
0,2022-09-07 20:13:16.2710,00:07,60,0,2022-09-07 20:13:18.5410,1662552798.541161,0.011894210060511893,-0.030370422755154624,-0.006922620937551972,-0.002166748046875,-0.055511474609375,-0.984222412109375,89.14793395996094,-82.98536682128906,-73.95584106445312,2022-09-07 20:13:19.9870,1662552799.987443,0.0008168350905179977,0.0011096375528723001,0.0028902683407068253,-0.14118686318397522,0.04422488436102867,-0.9669978022575378,
0,2022-09-07 20:13:16.2710,00:07,60,0,2022-09-07 20:13:18.5580,1662552798.5583072,0.002741458026127568,-0.018065553254552513,-0.006302637035781525,-0.000885009765625,-0.055877685546875,-0.9940948486328125,89.18447875976562,-82.70820617675781,-73.5523681640625,2022-09-07 20:13:20.0170,1662552800.017465,0.0012545762583613396,-0.0012463163584470749,-0.001960400491952896,-0.14262115955352783,0.04385867342352867,-0.9669672846794128,
0,2022-09-07 20:13:16.2710,00:07,60,0,2022-09-07 20:13:18.5760,1662552798.576083,0.0005299690569257684,-0.011484882200966716,-0.0052482915602191545,0.0018310546875,-0.0544281005859375,-1.0033111572265625,89.146728515625,-82.82867431640625,-73.62126159667969,2022-09-07 20:13:20.0480,1662552800.047621,0.0002814573235809803,0.0005041796248406172,-0.001767587848007679,-0.14312466979026794,0.04346194118261337,-0.9678676128387451,
0,2022-09-07 20:13:16.2710,00:07,60,0,2022-09-07 20:13:18.5930,1662552798.592751,-0.0005688512088409252,-0.011294199866917041,-0.004901547986290838,0.00091552734375,-0.0543212890625,-1.00421142578125,89.14118957519531,-83.01760864257812,-74.02864074707031,2022-09-07 20:13:20.0780,1662552800.0775142,0.004983701277524233,-0.004924317356199026,0.0015103379264473915,-0.14315515756607056,0.04607119411230087,-0.9667384624481201,
0,2022-09-07 20:13:16.2710,00:07,60,0,2022-09-07 20:13:18.6100,1662552798.609521,-9.134642538971787e-05,-0.008728776788843711,-0.006518619400186951,0.0006256103515625,-0.05474853515625,-1.0058441162109375,89.14118957519531,-83.01760864257812,-74.02864074707031,2022-09-07 20:13:20.1070,1662552800.10682,-0.0021964844781905413,-0.00025390018709003925,-0.001458875834941864,-0.14350609481334686,0.04440798982977867,-0.9685847759246826,
0,2022-09-07 20:13:16.2710,00:07,60,0,2022-09-07 20:13:18.6260,1662552798.626068,0.0014700649217237395,-0.012703544715786974,-0.006540723637234609,0.0008087158203125,-0.0543365478515625,-1.0049591064453125,89.04649353027344,-82.72451782226562,-73.33822631835938,2022-09-07 20:13:20.1370,1662552800.136797,0.0009041759185492992,-0.002088947454467416,0.003093419596552849,-0.14271265268325806,0.04247012361884117,-0.9671504497528076,
0,2022-09-07 20:13:16.2710,00:07,60,0,2022-09-07 20:13:18.6430,1662552798.642765,0.001370729013063784,-0.013604758428669789,-0.0045369612330589905,0.001708984375,-0.054412841796875,-1.00469970703125,89.11572265625,-82.87576293945312,-73.97990417480469,2022-09-07 20:13:20.1670,1662552800.166778,0.003084239549934864,-0.0024396858643740416,0.0009351931512355804,-0.1423616111278534,0.04573547840118408,-0.9666316509246826,
0,2022-09-07 20:13:16.2710,00:07,60,0,2022-09-07 20:13:18.6600,1662552798.659515,0.00035739621828863376,-0.011808189957302335,-0.005050951323444283,0.0008697509765625,-0.0550537109375,-1.003326416015625,89.17918395996094,-82.54673767089844,-73.68531799316406,2022-09-07 20:13:20.1970,1662552800.1967149,6.5783970057964325e-06,-0.0013740519061684608,0.0023601967841386795,-0.1422090232372284,0.043248292058706284,-0.9686305522918701,
0,2022-09-07 20:13:16.2710,00:07,60,0,2022-09-07 20:13:18.6760,1662552798.6761088,0.00010918960469324876,-0.012333631640374968,-0.00673939545455452,0.0005645751953125,-0.0548858642578125,-1.004608154296875,89.06430053710938,-82.77554321289062,-74.01252746582031,2022-09-07 20:13:20.2270,1662552800.2265248,-0.004979344550520182,-0.0014480783138424158,0.001946842297911644,-0.1426515281200409,0.04466735199093819,-0.9667232036590576,
0,2022-09-07 20:13:16.2710,00:07,60,0,2022-09-07 20:13:18.6930,1662552798.692667,0.000450873172550415,-0.013316604398723215,-0.005481850787819104,0.001220703125,-0.0545501708984375,-1.00396728515625,89.10626220703125,-82.83628845214844,-73.91683959960938,2022-09-07 20:13:20.2570,1662552800.25664,0.005000964738428593,7.203500717878342e-05,-0.0017050271853804588,-0.1428346037864685,0.04485045373439789,-0.9679133892059326,
0,2022-09-07 20:13:16.2710,00:07,60,0,2022-09-07 20:13:18.7090,1662552798.709269,1.8375811521546742e-05,-0.013799968136572596,-0.0052727926422478835,0.0007476806640625,-0.05548095703125,-1.0056304931640625,89.10626220703125,-82.83628845214844,-73.91683959960938,2022-09-07 20:13:20.2860,1662552800.2863479,0.003644883166998625,0.004205793607980013,0.0016047488898038864,-0.143216073513031,0.04422484338283539,-0.9678981304168701,
0,2022-09-07 20:13:16.2710,00:07,60,0,2022-09-07 20:13:18.7260,1662552798.726116,-0.001363272162011562,-0.012495019202433769,-0.0071157001165827165,0.0005340576171875,-0.0550079345703125,-1.003753662109375,89.10369873046875,-82.6986083984375,-73.33689880371094,2022-09-07 20:13:20.3160,1662552800.316317,0.0005663428455591202,0.0011548318434506655,-0.004146224819123745,-0.14324656128883362,0.04375182464718819,-0.9662959575653076,
0,2022-09-07 20:13:16.2710,00:07,60,0,2022-09-07 20:13:18.7430,1662552798.742779,-0.0026245452542730894,-0.007780957756884511,-0.005765477443912543,0.0001068115234375,-0.0544281005859375,-1.0025482177734375,89.26734924316406,-82.865966796875,-73.82588195800781,2022-09-07 20:13:20.3460,1662552800.346167,-0.0005570524372160435,0.00031883828341960907,-0.0012606019154191017,-0.14309395849704742,0.044163815677165985,-0.9682795405387878,
0,2022-09-07 20:13:16.2710,00:07,60,0,2022-09-07 20:13:18.7590,1662552798.759478,0.0004181162911424404,-0.009621468386238272,-0.009424660781681415,7.62939453125e-05,-0.054718017578125,-1.006805419921875,89.08819580078125,-82.86236572265625,-73.5045166015625,2022-09-07 20:13:20.3760,1662552800.376377,0.001690724864602089,0.00040934630669653416,0.0011657113209366798,-0.14407050609588623,0.043568722903728485,-0.9676845073699951,
0,2022-09-07 20:13:16.2710,00:07,60,0,2022-09-07 20:13:18.7760,1662552798.776075,0.0032943302684280175,-0.012023906005598753,-0.005805957492481747,0.0008697509765625,-0.0545196533203125,-1.0051727294921875,89.24461364746094,-82.69694519042969,-74.06686401367188,2022-09-07 20:13:20.4060,1662552800.406173,-0.0012296976055949926,0.004644038621336222,-0.00214300025254488,-0.14385688304901123,0.044392697513103485,-0.9673488140106201,
0,2022-09-07 20:13:16.2710,00:07,60,0,2022-09-07 20:13:18.7930,1662552798.792951,0.004054396443536632,-0.015854863233677737,-0.008400142710327933,0.0006866455078125,-0.0548858642578125,-1.00469970703125,89.12332153320312,-82.55926513671875,-73.61990356445312,2022-09-07 20:13:20.4360,1662552800.435806,-0.00408982252702117,-0.005538253579288721,-0.002314375713467598,-0.14170536398887634,0.043751806020736694,-0.9680354595184326,
0,2022-09-07 20:13:16.2710,00:07,60,0,2022-09-07 20:13:18.8090,1662552798.808981,-0.0033406692713953963,-0.0067828049803228116,-0.007911452650298393,-0.00030517578125,-0.0550079345703125,-0.9996490478515625,89.12332153320312,-82.55926513671875,-73.61990356445312,2022-09-07 20:13:20.4660,1662552800.465874,0.0003852793015539646,-0.0012098336592316628,-0.0030501186847686768,-0.14426879584789276,0.04567437991499901,-0.9661738872528076,
0,2022-09-07 20:13:16.2710,00:07,60,0,2022-09-07 20:13:18.8260,1662552798.826227,-0.0005866943881444562,-0.009685117936291166,-0.00634817709042188,0.000518798828125,-0.0548095703125,-1.005035400390625,89.10252380371094,-82.63714599609375,-72.97125244140625,2022-09-07 20:13:20.4960,1662552800.495658,-0.0007097308989614248,-0.002224917523562908,0.0002539828419685364,-0.14361265301704407,0.04434685781598091,-0.9680355191230774,
0,2022-09-07 20:13:16.2710,00:07,60,0,2022-09-07 20:13:18.8430,1662552798.84304,-0.0023446470237057614,-0.010863566718651229,-0.006494917266485246,0.0010528564453125,-0.0550384521484375,-1.004730224609375,89.19804382324219,-82.89181518554688,-73.65269470214844,2022-09-07 20:13:20.5250,1662552800.5254889,0.0012889713980257511,-0.004517100285738707,0.0034447163343429565,-0.1428496390581131,0.043797533959150314,-0.9680202007293701,
0,2022-09-07 20:13:16.2710,00:07,60,0,2022-09-07 20:13:18.8600,1662552798.859503,-0.002348908081449888,-0.007219297082986799,-0.004771053092876955,0.0005645751953125,-0.0549468994140625,-1.00537109375,89.34550476074219,-82.84077453613281,-73.55989074707031,2022-09-07 20:13:20.5550,1662552800.555345,-0.0009192307479679585,0.004187067039310932,0.0012366333976387978,-0.14199517667293549,0.04471307620406151,-0.9695460796356201,
0,2022-09-07 20:13:16.2710,00:07,60,0,2022-09-07 20:13:18.8760,1662552798.876256,0.0013891048245853307,-0.011094729101270106,-0.0068563082264089985,0.000885009765625,-0.055328369140625,-1.0058746337890625,89.29563903808594,-82.94813537597656,-74.26522827148438,2022-09-07 20:13:20.5850,1662552800.585422,0.000519217923283577,0.004889742936939001,0.0005375286564230919,-0.1437499076128006,0.04422478750348091,-0.9674556255340576,
0,2022-09-07 20:13:16.2710,00:07,60,0,2022-09-07 20:13:18.8930,1662552798.892761,0.003415237781917615,-0.01131364094287462,-0.0047199203999474335,0.000701904296875,-0.05499267578125,-1.0049285888671875,89.38127136230469,-82.80014038085938,-73.91311645507812,2022-09-07 20:13:20.6150,1662552800.6151729,0.0004710964858531952,-0.00014782696962356567,0.0021183863282203674,-0.1419493854045868,0.04480462148785591,-0.9692256450653076,
0,2022-09-07 20:13:16.2710,00:07,60,0,2022-09-07 20:13:18.9090,1662552798.909385,-0.0009960222476896351,-0.011851333166961618,-0.0061939800633062925,0.00115966796875,-0.055511474609375,-1.0043792724609375,89.25114440917969,-82.97550964355469,-72.72360229492188,2022-09-07 20:13:20.6450,1662552800.6450648,0.0012138523161411285,0.0007086454425007105,0.00042834412306547165,-0.1425292193889618,0.04533867910504341,-0.9667079448699951,
0,2022-09-07 20:13:16.2710,00:07,60,0,2022-09-07 20:13:18.9260,1662552798.926187,-0.001027713864661578,-0.012849485943523316,-0.006403837157204536,0.0009002685546875,-0.05499267578125,-1.003997802734375,89.25114440917969,-82.97550964355469,-72.72360229492188,2022-09-07 20:13:20.6750,1662552800.675034,-0.0014288800302892923,0.0032558792736381292,-0.0023889588192105293,-0.1416594386100769,0.045216601341962814,-0.9669826030731201,
0,2022-09-07 20:13:16.2710,00:07,60,0,2022-09-07 20:13:18.9430,1662552798.9429688,0.001479119669430009,-0.011645470814698492,-0.005039233414647935,0.00115966796875,-0.0545806884765625,-1.0041656494140625,89.17793273925781,-82.82997131347656,-73.74005126953125,2022-09-07 20:13:20.7050,1662552800.704955,0.003059235867112875,-0.0012188078835606575,-0.001077527180314064,-0.14378038048744202,0.04236320033669472,-0.9671351909637451,
0,2022-09-07 20:13:16.2710,00:07,60,0,2022-09-07 20:13:18.9590,1662552798.959435,0.0037713024196612092,-0.01685887496463761,-0.008183361397595483,0.000823974609375,-0.0547332763671875,-1.0059051513671875,89.29183959960938,-82.8717041015625,-73.74739074707031,2022-09-07 20:13:20.7350,1662552800.734748,6.85746781527996e-05,-0.0004288335330784321,-0.0007452294230461121,-0.14100325107574463,0.046376243233680725,-0.9692866802215576,
0,2022-09-07 20:13:16.2710,00:07,60,0,2022-09-07 20:13:18.9760,1662552798.976066,-0.0011547466486583576,-0.009146893079986151,-0.009555954623422323,0.000274658203125,-0.054840087890625,-1.004425048828125,89.23191833496094,-82.38368225097656,-73.98245239257812,2022-09-07 20:13:20.7640,1662552800.7644958,-0.001057676039636135,-0.00210023345425725,0.003678547218441963,-0.14158308506011963,0.04491139575839043,-0.9673182964324951,
0,2022-09-07 20:13:16.2710,00:07,60,0,2022-09-07 20:13:18.9930,1662552798.9931312,-0.0007707188194689315,-0.013667609030395659,-0.007954862176066684,0.00103759765625,-0.0552215576171875,-1.004425048828125,89.28398132324219,-82.83998107910156,-73.98489379882812,2022-09-07 20:13:20.7950,1662552800.7948132,-0.0031022385228425264,0.0009371512569487095,8.188281208276749e-05,-0.14294108748435974,0.04468250274658203,-0.9673641324043274,
0,2022-09-07 20:13:16.2710,00:07,60,0,2022-09-07 20:13:19.0090,1662552799.009211,-0.0018977685927904651,-0.009980462501180953,-0.007954063227739661,0.0006256103515625,-0.0546722412109375,-1.00335693359375,89.17898559570312,-82.63560485839844,-73.42059326171875,2022-09-07 20:13:20.8240,1662552800.8244328,0.0026315143331885338,-0.0008843624964356422,0.002010442316532135,-0.14410071074962616,0.045796386897563934,-0.9686915874481201,
0,2022-09-07 20:13:16.2710,00:07,60,0,2022-09-07 20:13:19.0260,1662552799.025872,-0.0007512777435113531,-0.010232663856411457,-0.007478688973160516,0.000457763671875,-0.0549163818359375,-1.0039520263671875,89.17898559570312,-82.63560485839844,-73.42059326171875,2022-09-07 20:13:20.8540,1662552800.854296,0.0016017239540815353,-0.003342923242598772,0.00026005133986473083,-0.14345985651016235,0.04399585723876953,-0.9666774272918701,
0,2022-09-07 20:13:16.2710,00:07,60,0,2022-09-07 20:13:19.0430,1662552799.042636,-0.0015422365872648869,-0.010718957071459926,-0.00977300225226378,0.0003814697265625,-0.055450439453125,-1.0045623779296875,89.22897338867188,-82.53652954101562,-73.55517578125,2022-09-07 20:13:20.8840,1662552800.884157,-0.0024476125836372375,-0.0004890800919383764,0.0023146802559494972,-0.14393287897109985,0.04391955956816673,-0.9679591655731201,
0,2022-09-07 20:13:16.2710,00:07,60,0,2022-09-07 20:13:19.0590,1662552799.059363,-9.267800593475748e-05,-0.01207024500856613,-0.007460046845529962,0.0002288818359375,-0.05517578125,-1.0037841796875,89.26560974121094,-82.82438659667969,-73.93013000488281,2022-09-07 20:13:20.9140,1662552800.914277,-0.0009377484675496817,-0.0019369935616850853,-0.0017188871279358864,-0.14274264872074127,0.04469774663448334,-0.9673183560371399,
0,2022-09-07 20:13:16.2710,00:07,60,0,2022-09-07 20:13:19.0760,1662552799.0760322,-0.0011163971289612166,-0.010082461570930987,-0.006143912634812803,0.000335693359375,-0.0554656982421875,-1.003875732421875,89.14358520507812,-82.54620361328125,-73.87110900878906,2022-09-07 20:13:20.9440,1662552800.9442549,0.00024694157764315605,-0.0001992403995245695,-0.001051529310643673,-0.1428646743297577,0.04314133897423744,-0.9666926860809326,
0,2022-09-07 20:13:16.2710,00:07,60,0,2022-09-07 20:13:19.0930,1662552799.092711,-0.0007664577617248048,-0.01010030475023452,-0.006478671983835763,0.00067138671875,-0.0548095703125,-1.0042266845703125,89.24325561523438,-82.69961547851562,-74.22395324707031,2022-09-07 20:13:20.9740,1662552800.973926,-0.0013629531022161245,-0.0005519255064427853,0.003034573048353195,-0.1434750258922577,0.04366013780236244,-0.9682796001434326,
0,2022-09-07 20:13:16.2710,00:07,60,0,2022-09-07 20:13:19.1100,1662552799.1096668,-0.0008948221262666241,-0.010460896761831248,-0.00851465863720134,-1.52587890625e-05,-0.0554962158203125,-1.0042266845703125,89.28825378417969,-82.79446411132812,-73.67500305175781,2022-09-07 20:13:21.0040,1662552801.003685,0.00040618469938635826,-0.0005841497331857681,0.0008939243853092194,-0.1427120864391327,0.045979466289281845,-0.9685084819793701,
0,2022-09-07 20:13:16.2710,00:07,60,0,2022-09-07 20:13:19.1260,1662552799.126231,-0.0008021441203318665,-0.010679542287326753,-0.00455879915399764,0.000762939453125,-0.055267333984375,-1.0041656494140625,89.28825378417969,-82.79446411132812,-73.67500305175781,2022-09-07 20:13:21.0340,1662552801.0343451,5.105370655655861e-05,0.003525848500430584,-0.0006765406578779221,-0.1430630087852478,0.043721165508031845,-0.9679744839668274,
0,2022-09-07 20:13:16.2710,00:07,60,0,2022-09-07 20:13:19.1410,1662552799.141382,-0.0004383563154270426,-0.010381800877455894,-0.007453388942804764,0.0007476806640625,-0.05517578125,-1.003387451171875,89.36744689941406,-83.02561950683594,-73.40939331054688,2022-09-07 20:13:21.0630,1662552801.063458,-0.0030542141757905483,0.0001573525369167328,6.570108234882355e-05,-0.1418728083372116,0.04422469437122345,-0.9671047329902649,
0,2022-09-07 20:13:16.2710,00:07,60,0,2022-09-07 20:13:19.1580,1662552799.158001,-0.0018317221977565,-0.007440073137354368,-0.009137039383952859,0.000244140625,-0.0546722412109375,-1.0046234130859375,89.17918395996094,-82.66081237792969,-73.23504638671875,2022-09-07 20:13:21.0940,1662552801.093638,0.06341010332107544,0.024167951196432114,-0.01072115171700716,-0.143551304936409,0.04471301659941673,-0.9694698452949524,
0,2022-09-07 20:13:16.2710,00:07,60,0,2022-09-07 20:13:19.1730,1662552799.173252,-0.000989098028855429,-0.010129333206116382,-0.006461361436750248,0.00018310546875,-0.055145263671875,-1.004486083984375,89.279052734375,-82.81513977050781,-73.45060729980469,2022-09-07 20:13:21.1230,1662552801.1232119,0.20601917803287506,0.5319523215293884,-0.006923483684659004,-0.1181032657623291,0.07068504393100739,-0.9512197375297546,
0,2022-09-07 20:13:16.2710,00:07,60,0,2022-09-07 20:13:19.1900,1662552799.190003,-0.004446680072105304,-0.010605240092913542,-0.006226204312496251,0.0001220703125,-0.0549774169921875,-1.0055999755859375,89.22113037109375,-82.73179626464844,-73.21034240722656,2022-09-07 20:13:21.1530,1662552801.1531792,0.13054466247558594,0.4231550395488739,-0.025034984573721886,-0.11741922050714493,0.048774439841508865,-0.9704760313034058,
0,2022-09-07 20:13:16.2710,00:07,60,0,2022-09-07 20:13:19.2070,1662552799.2065768,-0.0021656825984524364,-0.011466506389445168,-0.007782821969647566,0.00042724609375,-0.0543365478515625,-1.004547119140625,89.22113037109375,-82.73179626464844,-73.21034240722656,2022-09-07 20:13:21.1830,1662552801.183109,0.04758267104625702,0.681188702583313,-0.16642636060714722,-0.1284099891781807,0.022789791226387024,-0.982499361038208,
0,2022-09-07 20:13:16.2710,00:07,60,0,2022-09-07 20:13:19.2230,1662552799.223311,-0.0014391722530788203,-0.010152502707600071,-0.004243747197041266,0.0009918212890625,-0.05517578125,-1.003631591796875,89.29876708984375,-82.87068176269531,-72.09696960449219,2022-09-07 20:13:21.2130,1662552801.213046,-0.047386184334754944,0.10750225186347961,-0.07501281797885895,-0.05396506190299988,0.028969498351216316,-0.9624032974243164,
0,2022-09-07 20:13:16.2710,00:07,60,0,2022-09-07 20:13:19.2400,1662552799.239871,-0.0024482439901098436,-0.009257946897442455,-0.007596400693342019,0.0001220703125,-0.054931640625,-1.004852294921875,89.14106750488281,-82.97816467285156,-73.30494689941406,2022-09-07 20:13:21.2430,1662552801.2432451,0.05174972116947174,0.4513336718082428,-0.14795680344104767,-0.10721991211175919,0.02216397598385811,-0.9785928130149841,
0,2022-09-07 20:13:16.2710,00:07,60,0,2022-09-07 20:13:19.2570,1662552799.2566152,-0.0007960188498246843,-0.011588745483479806,-0.005119660879568328,-3.0517578125e-05,-0.055389404296875,-1.0043182373046875,89.15383911132812,-82.87423706054688,-73.37001037597656,2022-09-07 20:13:21.2730,1662552801.273222,0.06977026164531708,0.3040033280849457,-0.08627016842365265,-0.03536900132894516,0.0282524935901165,-0.9603887796401978,
0,2022-09-07 20:13:16.2710,00:07,60,0,2022-09-07 20:13:19.2730,1662552799.273265,-0.002684200062690864,-0.009328786982438563,-0.006805974481806501,0.0001678466796875,-0.055419921875,-1.0039215087890625,89.14167785644531,-82.9879150390625,-73.25663757324219,2022-09-07 20:13:21.3030,1662552801.3025699,0.11353372037410736,0.4227513074874878,-0.11397583037614822,-0.06688138842582703,0.029382316395640373,-0.9761967658996582,
0,2022-09-07 20:13:16.2710,00:07,60,0,2022-09-07 20:13:19.2900,1662552799.290049,-0.000968325372352811,-0.009796438069856478,-0.00783874835253923,0.000274658203125,-0.0555419921875,-1.0055389404296875,89.23004150390625,-82.91555786132812,-72.77964782714844,2022-09-07 20:13:21.3320,1662552801.332491,-0.07356932014226913,0.021035807207226753,-0.040865667164325714,-0.024738498032093048,0.014215324074029922,-0.9642184376716614,
0,2022-09-07 20:13:16.2710,00:07,60,0,2022-09-07 20:13:19.3070,1662552799.306854,-0.0021244036015562085,-0.011006045836970468,-0.00882784638139466,0.00030517578125,-0.0557403564453125,-1.004852294921875,89.23004150390625,-82.91555786132812,-72.77964782714844,2022-09-07 20:13:21.3630,1662552801.3628302,-0.050091955810785294,-0.015072396025061607,-0.02989237755537033,-0.05427926778793335,0.03275423310697079,-0.9780277013778687,
0,2022-09-07 20:13:16.2710,00:07,60,0,2022-09-07 20:13:19.3230,1662552799.3233008,3.6751623043093484e-05,-0.008495750193461778,-0.008710134661213157,0.0008087158203125,-0.0549468994140625,-1.00408935546875,89.23858642578125,-82.92910766601562,-71.45387268066406,2022-09-07 20:13:21.3930,1662552801.392618,-0.05446140840649605,0.0025481425691396,-0.031131280586123466,-0.05034254118800163,0.028023675084114075,-0.9775241613388062,
0,2022-09-07 20:13:16.2710,00:07,60,0,2022-09-07 20:13:19.3400,1662552799.3400059,-0.001852761170368126,-0.010332798713398436,-0.005921006051573171,0.0007476806640625,-0.055023193359375,-1.003936767578125,89.27420043945312,-82.79173278808594,-73.10176086425781,2022-09-07 20:13:21.4310,1662552801.4308329,0.07718583196401596,0.08991873264312744,-0.0196838416159153,-0.057315777987241745,0.03592774271965027,-0.9787754416465759,
0,2022-09-07 20:13:16.2710,00:07,60,0,2022-09-07 20:13:19.3570,1662552799.3567948,-0.0008191883513083737,-0.009654491583755254,-0.005216599943247212,0.0004730224609375,-0.055267333984375,-1.004608154296875,89.25663757324219,-83.12161254882812,-73.26211547851562,2022-09-07 20:13:21.4520,1662552801.452313,0.08795326203107834,0.21343587338924408,-0.04517476633191109,-0.05626435577869415,0.028436433523893356,-0.9818881154060364,
0,2022-09-07 20:13:16.2710,00:07,60,0,2022-09-07 20:13:19.3730,1662552799.373409,-0.0009637979984996763,-0.009269931122347813,-0.008184160345922507,-3.0517578125e-05,-0.0541839599609375,-1.0038604736328125,89.22019958496094,-83.04080200195312,-73.36865234375,2022-09-07 20:13:21.4830,1662552801.482514,0.0022338307462632656,0.02233542874455452,-0.01020586397498846,-0.025457866489887238,0.015848224982619286,-0.9686739444732666,
0,2022-09-07 20:13:16.2710,00:07,60,0,2022-09-07 20:13:19.3900,1662552799.3901892,-0.001629321954910478,-0.010716293910369847,-0.007090133770117956,9.1552734375e-05,-0.0559844970703125,-1.0039520263671875,89.15957641601562,-82.84156799316406,-74.17134094238281,2022-09-07 20:13:21.5120,1662552801.511735,-0.014063915237784386,-0.014042552560567856,-0.00926923006772995,-0.03658148646354675,0.021661734208464622,-0.9762575626373291,
0,2022-09-07 20:13:16.2710,00:07,60,0,2022-09-07 20:13:19.4070,1662552799.406858,-0.002474875601010636,-0.01109819121068721,-0.008305334175521113,0.0006866455078125,-0.0547637939453125,-1.004486083984375,89.15957641601562,-82.84156799316406,-74.17134094238281,2022-09-07 20:13:21.5620,1662552801.56222,-0.013395728543400764,0.016231730580329895,-0.013333373703062534,-0.04445503652095795,0.02178380638360977,-0.9805300235748291,
0,2022-09-07 20:13:16.2710,00:07,60,0,2022-09-07 20:13:19.4240,1662552799.423573,-0.0014072143199978695,-0.00707548638412252,-0.00637640659797672,0.0005340576171875,-0.055877685546875,-1.0048828125,89.17315673828125,-83.01773071289062,-72.85110473632812,2022-09-07 20:13:21.5780,1662552801.57795,0.042927999049425125,-0.0005416569765657187,0.01329147256910801,-0.03963327407836914,0.029031768441200256,-0.9755861759185791,
0,2022-09-07 20:13:16.2710,00:07,60,0,2022-09-07 20:13:19.4400,1662552799.440166,-0.0010495517856002278,-0.011591408644569885,-0.007164169648422159,-0.0002899169921875,-0.0550384521484375,-1.00396728515625,89.01113891601562,-82.59335327148438,-73.89328002929688,2022-09-07 20:13:21.6040,1662552801.604038,-0.006101863458752632,0.008088050410151482,-0.006311256904155016,-0.03972487151622772,0.02443898655474186,-0.9759829044342041,
0,2022-09-07 20:13:16.2710,00:07,60,0,2022-09-07 20:13:19.4570,1662552799.456818,-0.0023441143914877454,-0.007902664218701132,-0.004018177452711554,0.000274658203125,-0.054779052734375,-1.00482177734375,89.17012023925781,-82.62940979003906,-73.64324951171875,2022-09-07 20:13:21.6310,1662552801.631112,0.026311468333005905,-0.09821388125419617,0.052145663648843765,-0.04424169659614563,0.024255868047475815,-0.9797976016998291,
0,2022-09-07 20:13:16.2710,00:07,60,0,2022-09-07 20:13:19.4740,1662552799.473552,-0.001104945536273876,-0.008995891846178659,-0.007350590924727706,0.000457763671875,-0.0556488037109375,-1.0032958984375,89.09332275390625,-82.6195068359375,-73.47030639648438,2022-09-07 20:13:21.6610,1662552801.661138,0.11435876786708832,-0.5034202337265015,-0.06650327891111374,0.137261014431715,0.06455436162650585,-0.8979799151420593,
0,2022-09-07 20:13:16.2710,00:07,60,0,2022-09-07 20:13:19.4900,1662552799.490058,-0.002057824574304227,-0.011179417623934627,-0.007821704121562722,0.000396728515625,-0.0550384521484375,-1.0043792724609375,89.2413330078125,-82.79318237304688,-73.96681213378906,2022-09-07 20:13:21.6910,1662552801.6908588,0.006409667897969484,0.009368497878313065,-0.0007987795397639275,-0.03609398379921913,0.023340372368693352,-0.9785463213920593,
0,2022-09-07 20:13:16.2710,00:07,60,0,2022-09-07 20:13:19.5070,1662552799.5067902,-0.0015020228548046903,-0.009225988964361505,-0.007836351507558159,9.1552734375e-05,-0.0548553466796875,-1.0042877197265625,89.2413330078125,-82.79318237304688,-73.96681213378906,2022-09-07 20:13:21.7210,1662552801.72077,0.007020863238722086,0.008175401948392391,0.0006180219352245331,-0.037909820675849915,0.02233337238430977,-0.9778444766998291,
0,2022-09-07 20:13:16.2710,00:07,60,0,2022-09-07 20:13:19.5240,1662552799.523752,-0.0014900386298993338,-0.008553008156898481,-0.005868808094207617,4.57763671875e-05,-0.0549163818359375,-1.00537109375,89.31913757324219,-82.766845703125,-73.26611328125,2022-09-07 20:13:21.7510,1662552801.750787,0.012913906015455723,0.009185805916786194,0.0036108829081058502,-0.037909913808107376,0.021570557728409767,-0.9771425127983093,
0,2022-09-07 20:13:16.2710,00:07,60,0,2022-09-07 20:13:19.5410,1662552799.5408869,-0.0015622102954404812,-0.010685933873942944,-0.008793491603332636,0.0002899169921875,-0.0553131103515625,-1.00341796875,89.33712768554688,-82.81076049804688,-73.14520263671875,2022-09-07 20:13:21.7800,1662552801.780483,-0.0037604118697345257,-0.008030998520553112,0.004258403554558754,-0.034507207572460175,0.02256239391863346,-0.9782412052154541,
0,2022-09-07 20:13:16.2710,00:07,60,0,2022-09-07 20:13:19.5580,1662552799.558151,-0.0022849922152879862,-0.009493104021696452,-0.004785700478872391,0.001373291015625,-0.054931640625,-1.005462646484375,89.36721801757812,-83.04411315917969,-73.39834594726562,2022-09-07 20:13:21.8100,1662552801.810386,-0.02365129441022873,-0.00961131788790226,-0.002848242409527302,-0.0365365594625473,0.021692531183362007,-0.9769136905670166,
0,2022-09-07 20:13:16.2710,00:07,60,0,2022-09-07 20:13:19.5760,1662552799.575942,-0.0004386226315360505,-0.008804943196019977,-0.006992395758112048,0.000396728515625,-0.0551605224609375,-1.0025634765625,89.08073425292969,-82.82856750488281,-73.93339538574219,2022-09-07 20:13:21.8400,1662552801.840376,-0.06144634634256363,-0.03276590630412102,0.0032546576112508774,-0.034613803029060364,0.021493906155228615,-0.9785921573638916,
0,2022-09-07 20:13:16.2710,00:07,60,0,2022-09-07 20:13:19.5930,1662552799.592544,-0.0012647352016786303,-0.010302438676971533,-0.0075711006629862665,0.0005950927734375,-0.0549774169921875,-1.0047607421875,89.35392761230469,-82.99021911621094,-73.74284362792969,2022-09-07 20:13:21.8710,1662552801.8708649,-0.23472119867801666,-0.0017672437243163586,0.04546826332807541,-0.033728498965501785,0.014794349670410156,-0.9932558536529541,
0,2022-09-07 20:13:16.2710,00:07,60,0,2022-09-07 20:13:19.6090,1662552799.609017,-0.006983341010405778,-0.012155199847339659,-0.007216900238005728,0.00042724609375,-0.0550994873046875,-1.00494384765625,89.29154968261719,-82.79876708984375,-73.24943542480469,2022-09-07 20:13:21.9010,1662552801.901346,0.03807172551751137,0.4010249674320221,0.11581119149923325,-0.06531569920480251,0.03206619247794151,-1.0450899600982666,
0,2022-09-07 20:13:16.2710,00:07,60,0,2022-09-07 20:13:19.6260,1662552799.625921,-0.0009424927097790424,-0.010158095345889238,-0.007242466584470488,0.001373291015625,-0.05450439453125,-1.0050506591796875,89.29154968261719,-82.79876708984375,-73.24943542480469,2022-09-07 20:13:21.9300,1662552801.930172,0.04212531819939613,-1.934491515159607,0.39140787720680237,0.27280425280332565,0.11045048385858536,-0.575852632522583,
0,2022-09-07 20:13:16.2710,00:07,60,0,2022-09-07 20:13:19.6430,1662552799.642798,-0.0002801645466763359,-0.010639594870975565,-0.005822735407349246,0.000152587890625,-0.0549774169921875,-1.004150390625,89.20979309082031,-82.59234619140625,-73.24568176269531,2022-09-07 20:13:21.9600,1662552801.9600391,-0.2858163118362427,-0.6532059907913208,-0.056961387395858765,-0.25643491744995117,0.03497742488980293,-1.085925042629242,
0,2022-09-07 20:13:16.2710,00:07,60,0,2022-09-07 20:13:19.6590,1662552799.659189,0.0006599313181216353,-0.010028932033020395,-0.006298642294146406,-0.0002593994140625,-0.0549774169921875,-1.004119873046875,89.17770385742188,-82.84532165527344,-73.57711791992188,2022-09-07 20:13:21.9900,1662552801.990004,0.32243049144744873,1.1183425188064575,0.002674248069524765,-0.23473984003067017,0.06628955155611038,-0.9768852591514587,
0,2022-09-07 20:13:16.2710,00:07,60,0,2022-09-07 20:13:19.6760,1662552799.675806,-0.000590689129779575,-0.00819641088693687,-0.007240336055598425,-0.0001220703125,-0.0552825927734375,-1.003753662109375,89.35047912597656,-83.00628662109375,-74.23947143554688,2022-09-07 20:13:22.0200,1662552802.01987,-0.1365022212266922,-0.4484368562698364,-0.0024390211328864098,-0.01584061235189438,-0.004494857043027878,-0.945955216884613,
0,2022-09-07 20:13:16.2710,00:07,60,0,2022-09-07 20:13:19.6930,1662552799.692878,-0.001810683225144874,-0.011058776426554036,-0.005071457663837893,0.00079345703125,-0.0554351806640625,-1.0036163330078125,89.06770324707031,-82.48480224609375,-73.85821533203125,2022-09-07 20:13:22.0500,1662552802.0499449,-0.022849151864647865,-0.06907837092876434,-0.0001321909949183464,-0.16810491681098938,0.04509524628520012,-0.9749016165733337,
0,2022-09-07 20:13:16.2710,00:07,60,0,2022-09-07 20:13:19.7090,1662552799.70911,-0.0031411985057484613,-0.009975402495109803,-0.0071327443475592235,0.000244140625,-0.0554351806640625,-1.0052490234375,89.31039428710938,-82.67910766601562,-73.48419189453125,2022-09-07 20:13:22.0800,1662552802.079673,0.05926649272441864,0.16275618970394135,0.001584748737514019,-0.13584934175014496,0.04050285741686821,-0.9723379015922546,
0,2022-09-07 20:13:16.2710,00:07,60,0,2022-09-07 20:13:19.7260,1662552799.7258801,-0.0035324168698811016,-0.011547466486583577,-0.005497297122141563,0.00067138671875,-0.05596923828125,-1.0049591064453125,89.31039428710938,-82.67910766601562,-73.48419189453125,2022-09-07 20:13:22.1100,1662552802.109559,-0.04286253824830055,-0.13970887660980225,0.0033800918608903885,-0.11457782983779907,0.03706942871212959,-0.9679434895515442,
0,2022-09-07 20:13:16.2710,00:07,60,0,2022-09-07 20:13:19.7420,1662552799.742436,-0.0011230550316864148,-0.008359662661758728,-0.0059380502825496775,0.00030517578125,-0.0548248291015625,-1.004425048828125,89.16732788085938,-82.96257019042969,-73.68067932128906,2022-09-07 20:13:22.1390,1662552802.139497,0.03185883164405823,0.08779487013816833,-0.000991913489997387,-0.14013659954071045,0.04270000755786896,-0.9735739231109619,
0,2022-09-07 20:13:16.2710,00:07,60,0,2022-09-07 20:13:19.7590,1662552799.759081,-0.0020724719602996633,-0.008686432527511452,-0.006446714050754812,0.0004119873046875,-0.05535888671875,-1.00408935546875,89.27107238769531,-82.83291625976562,-72.97109985351562,2022-09-07 20:13:22.1690,1662552802.169451,-0.017326021566987038,-0.05947794392704964,0.0024353088811039925,-0.12008629739284515,0.03561986982822418,-0.9660971760749817,
0,2022-09-07 20:13:16.2710,00:07,60,0,2022-09-07 20:13:19.7760,1662552799.7755818,-7.590009106725828e-05,-0.01114559547809062,-0.0048935585030206,0.000701904296875,-0.0556793212890625,-1.0048370361328125,89.27247619628906,-82.94227600097656,-74.00001525878906,2022-09-07 20:13:22.1990,1662552802.1992059,0.008684540167450905,0.02378179132938385,0.0010267626494169235,-0.1347653865814209,0.039526160806417465,-0.9690268039703369,
0,2022-09-07 20:13:16.2710,00:07,60,0,2022-09-07 20:13:19.7930,1662552799.7925072,0.0004705805646170014,-0.009406817602377885,-0.006575078415296631,0.0003662109375,-0.055267333984375,-1.0045013427734375,89.16323852539062,-82.98214721679688,-74.10977172851562,2022-09-07 20:13:22.2290,1662552802.229095,-0.0003723388072103262,-0.020707644522190094,0.0029365699738264084,-0.12712056934833527,0.038396984338760376,-0.9704764485359192,
0,2022-09-07 20:13:16.2710,00:07,60,0,2022-09-07 20:13:19.8100,1662552799.809986,-0.0012567457184083925,-0.009398295486889632,-0.004169977634846072,0.00030517578125,-0.0546722412109375,-1.0049285888671875,89.54507446289062,-83.15959167480469,-73.60357666015625,2022-09-07 20:13:22.2590,1662552802.2590342,0.00010809581726789474,0.0036115427501499653,-0.001764708198606968,-0.12988246977329254,0.039892371743917465,-0.9699728488922119,
0,2022-09-07 20:13:16.2710,00:07,60,0,2022-09-07 20:13:19.8260,1662552799.826087,-0.0012892362837073593,-0.011067564858151299,-0.006111688385622844,0.0003662109375,-0.0557403564453125,-1.0044708251953125,89.54507446289062,-83.15959167480469,-73.60357666015625,2022-09-07 20:13:22.2890,1662552802.289269,0.002884441055357456,-0.0041981772519648075,-0.0005963798612356186,-0.13073688745498657,0.040044937282800674,-0.9695456624031067,
0,2022-09-07 20:13:16.2710,00:07,60,0,2022-09-07 20:13:19.8430,1662552799.8426151,-0.0020993698873094636,-0.008986038150145365,-0.005464273924624581,0.000244140625,-0.054779052734375,-1.004638671875,89.23526000976562,-82.96632385253906,-73.64488220214844,2022-09-07 20:13:22.3190,1662552802.319244,-0.004558561369776726,-0.005967048928141594,-0.0017071841284632683,-0.12907369434833527,0.03902260959148407,-0.9689353108406067,
0,2022-09-07 20:13:16.2710,00:07,60,0,2022-09-07 20:13:19.8590,1662552799.859335,-0.0010349043996047919,-0.008388158485422577,-0.00749493425581,-4.57763671875e-05,-0.055816650390625,-1.0040130615234375,89.44221496582031,-82.84347534179688,-73.74394226074219,2022-09-07 20:13:22.3490,1662552802.348933,0.0009978581219911575,0.002609395422041416,0.0007207663729786873,-0.1299281269311905,0.03827492520213127,-0.9705985188484192,
0,2022-09-07 20:13:16.2710,00:07,60,0,2022-09-07 20:13:19.8760,1662552799.875898,0.0010961571046766145,-0.01027074705999959,-0.00467677719028815,0.000274658203125,-0.0553741455078125,-1.0042266845703125,89.3096923828125,-82.76449584960938,-74.15284729003906,2022-09-07 20:13:22.3790,1662552802.378614,0.0020905528217554092,-0.005165170878171921,0.0020456891506910324,-0.1288905292749405,0.039068397134542465,-0.9691794514656067,
0,2022-09-07 20:13:16.2710,00:07,60,0,2022-09-07 20:13:19.8930,1662552799.8925729,-0.0012066782899149027,-0.01210113767721105,-0.004560397050651688,0.0005340576171875,-0.055816650390625,-1.0051116943359375,89.41633605957031,-82.85739135742188,-74.42176818847656,2022-09-07 20:13:22.4080,1662552802.408492,-0.00039204605855047703,-0.0005022420082241297,-0.0007342249155044556,-0.1299738883972168,0.038259681314229965,-0.9705832600593567,
0,2022-09-07 20:13:16.2710,00:07,60,0,2022-09-07 20:13:19.9090,1662552799.909051,-0.0032780849857785344,-0.00916633415594373,-0.005887450221838172,0.0004119873046875,-0.054931640625,-1.0051422119140625,89.29502868652344,-82.89527893066406,-73.31695556640625,2022-09-07 20:13:22.4390,1662552802.438597,0.001017564907670021,-0.00480138324201107,-0.0008439468219876289,-0.13067574799060822,0.03992287442088127,-0.9691641926765442,
0,2022-09-07 20:13:16.2710,00:07,60,0,2022-09-07 20:13:19.9260,1662552799.925816,-0.0010058759437229282,-0.009596700988100535,-0.003908188899691282,0.0006103515625,-0.0543975830078125,-1.003753662109375,89.29502868652344,-82.89527893066406,-73.31695556640625,2022-09-07 20:13:22.4690,1662552802.468655,0.0006716209463775158,0.0017467974685132504,0.002024116925895214,-0.13026373088359833,0.038610611110925674,-0.9694235920906067,
0,2022-09-07 20:13:16.2710,00:07,60,0,2022-09-07 20:13:19.9420,1662552799.942364,0.00037683729424621223,-0.007663778668921024,-0.004879976381461196,0.000244140625,-0.0548553466796875,-1.0037841796875,89.35952758789062,-83.08833312988281,-73.53076171875,2022-09-07 20:13:22.4980,1662552802.498301,0.003152088727802038,0.0007174857892096043,-0.0006888983771204948,-0.12976017594337463,0.03893103823065758,-0.9692710041999817,
0,2022-09-07 20:13:16.2710,00:07,60,0,2022-09-07 20:13:19.9590,1662552799.9591,-0.0009531453541393593,-0.00868270410198534,-0.0041835597564054755,0.001220703125,-0.0554656982421875,-1.0046844482421875,89.25773620605469,-82.9527587890625,-73.91007995605469,2022-09-07 20:13:22.5280,1662552802.5280042,-0.001894335262477398,0.00015582493506371975,0.002197488211095333,-0.13020268082618713,0.039678722620010376,-0.9697135090827942,
0,2022-09-07 20:13:16.2710,00:07,60,0,2022-09-07 20:13:19.9760,1662552799.9758492,-0.0012926983931244621,-0.007025951587847046,-0.007269364511480288,0.000274658203125,-0.05596923828125,-1.0043792724609375,89.23866271972656,-82.85403442382812,-74.21043395996094,2022-09-07 20:13:22.5580,1662552802.557907,0.002918529324233532,-0.001111573539674282,-0.0005463659763336182,-0.13165220618247986,0.03824438527226448,-0.9694083333015442,
0,2022-09-07 20:13:16.2710,00:07,60,0,2022-09-07 20:13:19.9930,1662552799.99264,0.0004218447166685513,-0.012883041773258315,-0.0053247242835044286,0.000762939453125,-0.05413818359375,-1.0039520263671875,89.28715515136719,-83.1226806640625,-73.77742004394531,2022-09-07 20:13:22.5880,1662552802.587873,-0.0029263098258525133,-0.0031377063132822514,0.002310939133167267,-0.13033992052078247,0.04092993214726448,-0.9691641926765442,
0,2022-09-07 20:13:16.2710,00:07,60,0,2022-09-07 20:13:20.0090,1662552800.00917,-0.0007904262115355179,-0.011384747343979736,-0.008632370357382842,0.0003662109375,-0.0543670654296875,-1.003997802734375,89.17562866210938,-82.8663330078125,-73.59930419921875,2022-09-07 20:13:22.6180,1662552802.6176748,0.0019038650207221508,0.0009680890943855047,-0.0006195493042469025,-0.13008052110671997,0.03987707197666168,-0.9680655598640442,
0,2022-09-07 20:13:16.2710,00:07,60,0,2022-09-07 20:13:20.0260,1662552800.025913,-0.0016530240886121832,-0.009979130920635914,-0.007464840535492105,0.0009002685546875,-0.056121826171875,-1.003936767578125,89.17562866210938,-82.8663330078125,-73.59930419921875,2022-09-07 20:13:22.6480,1662552802.64783,-4.317169077694416e-05,-0.001890281680971384,-0.0009785974398255348,-0.13079768419265747,0.04006018117070198,-0.9693167805671692,
0,2022-09-07 20:13:16.2710,00:07,60,0,2022-09-07 20:13:20.0430,1662552800.0427241,-0.0005781722726562026,-0.008500810199532928,-0.006752178627786901,0.00054931640625,-0.054901123046875,-1.0045623779296875,89.30113220214844,-83.00709533691406,-73.31561279296875,2022-09-07 20:13:22.6770,1662552802.6773438,0.001605324912816286,-0.0011901366524398327,-0.0008355854079127312,-0.1313927173614502,0.039098866283893585,-0.967638373374939,
0,2022-09-07 20:13:16.2710,00:07,60,0,2022-09-07 20:13:20.0590,1662552800.059318,-0.0019012307022075682,-0.008447280661622336,-0.0030570426153019577,0.0003814697265625,-0.05474853515625,-1.004302978515625,89.24346923828125,-82.85736083984375,-73.81268310546875,2022-09-07 20:13:22.7070,1662552802.707464,0.0019981414079666138,-0.0012705642729997635,-0.00171597208827734,-0.1297752410173416,0.039892327040433884,-0.9690268635749817,
0,2022-09-07 20:13:16.2710,00:07,60,0,2022-09-07 20:13:20.0760,1662552800.075969,-0.004603806576419979,-0.009938118239848694,-0.007593471216142932,0.0007171630859375,-0.0560302734375,-1.004150390625,89.28720092773438,-83.02224731445312,-73.75613403320312,2022-09-07 20:13:22.7370,1662552802.73736,0.0019941464997828007,-0.0006295412313193083,0.004324022680521011,-0.1302177459001541,0.03975499048829079,-0.9675467610359192,
0,2022-09-07 20:13:16.2710,00:07,60,0,2022-09-07 20:13:20.0930,1662552800.092546,-0.002691390597634078,-0.00957939044101502,-0.00897778235076612,0.00054931640625,-0.056121826171875,-1.0041961669921875,89.200927734375,-82.85479736328125,-73.70088195800781,2022-09-07 20:13:22.7680,1662552802.7677479,0.0020516710355877876,-0.00377739779651165,0.00186251662671566,-0.13174360990524292,0.038793694227933884,-0.9691489934921265,
0,2022-09-07 20:13:16.2710,00:07,60,0,2022-09-07 20:13:20.1090,1662552800.1093102,-0.0006269081206046527,-0.009934656130431591,-0.006854444013645943,0.0004730224609375,-0.055023193359375,-1.004486083984375,89.2105712890625,-82.57421875,-73.77838134765625,2022-09-07 20:13:22.7970,1662552802.796998,-0.00043252576142549515,-0.0033249263651669025,0.0009037787094712257,-0.13133162260055542,0.03858007490634918,-0.9691794514656067,
0,2022-09-07 20:13:16.2710,00:07,60,0,2022-09-07 20:13:20.1260,1662552800.1259642,-0.00042024682001450377,-0.008503739676732016,-0.006476807771072708,0.0004425048828125,-0.0551910400390625,-1.0031585693359375,89.12051391601562,-82.78515625,-73.34512329101562,2022-09-07 20:13:22.8270,1662552802.826868,0.0020149191841483116,-0.0009429953061044216,0.001176326535642147,-0.12951576709747314,0.039266716688871384,-0.9688132405281067,
0,2022-09-07 20:13:16.2710,00:07,60,0,2022-09-07 20:13:20.1430,1662552800.142671,-0.0020780645985888297,-0.009784986477169137,-0.005584382489787155,0.0003509521484375,-0.0556488037109375,-1.0048980712890625,89.12051391601562,-82.78515625,-73.34512329101562,2022-09-07 20:13:22.8570,1662552802.857065,0.0007818755693733692,-0.0002471113111823797,-0.0011258702725172043,-0.12948523461818695,0.039953358471393585,-0.9693930745124817,
0,2022-09-07 20:13:16.2710,00:07,60,0,2022-09-07 20:13:20.1590,1662552800.158589,-0.0010396980895669345,-0.01065317699253497,-0.0061495052731019685,0.0006256103515625,-0.0550079345703125,-1.0037994384765625,89.34158325195312,-83.3140869140625,-73.47576904296875,2022-09-07 20:13:22.8870,1662552802.886806,-0.0027971467934548855,-0.0011762883514165878,-0.0005372567102313042,-0.12910372018814087,0.03955661877989769,-0.9695151448249817,
0,2022-09-07 20:13:16.2710,00:07,60,0,2022-09-07 20:13:20.1740,1662552800.1735802,-0.0030639668341361634,-0.011206581867053434,-0.006829942931617214,0.0005645751953125,-0.055572509765625,-1.0049591064453125,89.24986267089844,-82.96006774902344,-73.08882141113281,2022-09-07 20:13:22.9170,1662552802.916863,4.7641806304454803e-05,0.0007869941182434559,-0.00041688233613967896,-0.13059908151626587,0.039495572447776794,-0.968523383140564,
0,2022-09-07 20:13:16.2710,00:07,60,0,2022-09-07 20:13:20.1900,1662552800.189924,-0.0006665892208468333,-0.006021673540778165,-0.0053702643381447835,0.00018310546875,-0.0548858642578125,-1.00494384765625,89.27047729492188,-82.98283386230469,-73.39187622070312,2022-09-07 20:13:22.9460,1662552802.9464989,0.0030916351824998856,-0.0020559304393827915,0.0014932425692677498,-0.13195711374282837,0.038686856627464294,-0.9692252278327942,
0,2022-09-07 20:13:16.2710,00:07,60,0,2022-09-07 20:13:20.2070,1662552800.2066011,-0.0017624800094144398,-0.01083373931444234,-0.0065018414853194526,0.000152587890625,-0.0552978515625,-1.004425048828125,89.21711730957031,-82.90116882324219,-73.05058288574219,2022-09-07 20:13:22.9760,1662552802.976393,-0.001982485642656684,-0.0017717708833515644,-0.0007758764550089836,-0.13101106882095337,0.0392209067940712,-0.9684012532234192,
0,2022-09-07 20:13:16.2710,00:07,60,0,2022-09-07 20:13:20.2230,1662552800.2232342,-0.0027497138255068135,-0.012651080442312413,-0.009649165261575096,0.0008087158203125,-0.0556793212890625,-1.00469970703125,89.21711730957031,-82.90116882324219,-73.05058288574219,2022-09-07 20:13:23.0060,1662552803.006269,0.000846590381115675,-0.0016769622452557087,0.0015043215826153755,-0.1311483383178711,0.0375271700322628,-0.9677757024765015,
0,2022-09-07 20:13:16.2710,00:07,60,0,2022-09-07 20:13:20.2400,1662552800.23984,-0.0007121292754871883,-0.008304535227194088,-0.0074086478364914325,0.0003814697265625,-0.0554656982421875,-1.0040435791015625,89.44017028808594,-83.04399108886719,-72.34779357910156,2022-09-07 20:13:23.0370,1662552803.036868,-0.003173984121531248,-0.0025888285599648952,0.0012981938198208809,-0.1299123764038086,0.03935820609331131,-0.9681876301765442,
0,2022-09-07 20:13:16.2710,00:07,60,0,2022-09-07 20:13:20.2570,1662552800.2565532,-0.002458097686143137,-0.010614028524510804,-0.0077215692645757434,0.0002288818359375,-0.055511474609375,-1.0045623779296875,89.21209716796875,-82.87428283691406,-73.13960266113281,2022-09-07 20:13:23.0660,1662552803.066292,0.00216964865103364,-0.0034538237378001213,0.0026497477665543556,-0.13226218521595,0.040075354278087616,-0.9700949788093567,
0,2022-09-07 20:13:16.2710,00:07,60,0,2022-09-07 20:13:20.2730,1662552800.273206,-0.001709483103721863,-0.010863566718651229,-0.006485596202669969,-0.000213623046875,-0.0546722412109375,-1.0043182373046875,89.26393127441406,-82.66481018066406,-73.11335754394531,2022-09-07 20:13:23.0960,1662552803.0959492,-0.000601370120421052,-0.0018295617774128914,-0.000898115336894989,-0.1309346854686737,0.039739660918712616,-0.969683051109314,
0,2022-09-07 20:13:16.2710,00:07,60,0,2022-09-07 20:13:20.2900,1662552800.2898998,-0.003888481507624696,-0.013729394367685497,-0.005077582934345076,0.001251220703125,-0.0555419921875,-1.004150390625,89.28085327148438,-82.95639038085938,-73.09217834472656,2022-09-07 20:13:23.1260,1662552803.1257591,0.0001464453525841236,0.0008535732049494982,-0.002472630701959133,-0.13026325404644012,0.03850369155406952,-0.9690573811531067,
0,2022-09-07 20:13:16.2710,00:07,60,0,2022-09-07 20:13:20.3070,1662552800.30674,-0.0017219999608452355,-0.010443319898636725,-0.0026748789988755867,0.0008544921875,-0.054840087890625,-1.0037689208984375,89.183349609375,-83.06544494628906,-72.92732238769531,2022-09-07 20:13:23.1560,1662552803.1556978,0.0014655091799795628,0.0011899303644895554,-0.0038287118077278137,-0.13059894740581512,0.03842739760875702,-0.9690268635749817,
0,2022-09-07 20:13:16.2710,00:07,60,0,2022-09-07 20:13:20.3230,1662552800.323296,-0.0030509173447947754,-0.011154117593578873,-0.008007060133432237,0.0001068115234375,-0.0552978515625,-1.00433349609375,89.183349609375,-83.06544494628906,-72.92732238769531,2022-09-07 20:13:23.1860,1662552803.185775,-0.0018935361877083778,-0.00463147321715951,0.0009334459900856018,-0.13148391246795654,0.03937343508005142,-0.9677451848983765,
0,2022-09-07 20:13:16.2710,00:07,60,0,2022-09-07 20:13:20.3400,1662552800.33989,0.0005422195979401329,-0.007499461629663135,-0.004611529743581209,0.0007171630859375,-0.0558929443359375,-1.00384521484375,89.21083068847656,-82.99879455566406,-71.97389221191406,2022-09-07 20:13:23.2160,1662552803.2155972,0.0017398144118487835,-0.0001810649409890175,0.0018726373091340065,-0.13023269176483154,0.03896145150065422,-0.9675925970077515,
0,2022-09-07 20:13:16.2710,00:07,60,0,2022-09-07 20:13:20.3570,1662552800.3566298,-0.0005352953791059269,-0.012129100868656883,-0.006180930573964904,0.0004425048828125,-0.0547637939453125,-1.0041046142578125,89.28285217285156,-82.80091857910156,-72.322998046875,2022-09-07 20:13:23.2450,1662552803.2454128,0.0009499210864305496,-0.0015592505224049091,-0.003023744560778141,-0.13149914145469666,0.03857998177409172,-0.9694541692733765,
0,2022-09-07 20:13:16.2710,00:07,60,0,2022-09-07 20:13:20.3730,1662552800.373316,-0.002255697443297115,-0.008633968254036891,-0.005882390215767021,0.000640869140625,-0.054412841796875,-1.0046844482421875,89.42868041992188,-82.85041809082031,-72.8868408203125,2022-09-07 20:13:23.2760,1662552803.2755818,0.0007603038102388382,-0.002962204162031412,0.002028804272413254,-0.13046151399612427,0.040121108293533325,-0.9695457220077515,
0,2022-09-07 20:13:16.2710,00:07,60,0,2022-09-07 20:13:20.3900,1662552800.390098,-0.000727042977591632,-0.00894582441768517,-0.00797590114867831,0.0003814697265625,-0.05560302734375,-1.0041656494140625,89.19999694824219,-82.36405944824219,-74.03807067871094,2022-09-07 20:13:23.3050,1662552803.3051748,-0.0005470416508615017,0.0023958098609000444,0.0016457559540867805,-0.13098031282424927,0.03874780982732773,-0.969713568687439,
0,2022-09-07 20:13:16.2710,00:07,60,0,2022-09-07 20:13:20.4070,1662552800.406573,0.0014223943382113211,-0.010272877588871654,-0.006660033254070159,0.000762939453125,-0.0550384521484375,-1.003936767578125,89.26405334472656,-82.80484008789062,-73.58302307128906,2022-09-07 20:13:23.3350,1662552803.335345,0.000280620064586401,0.0008218816947191954,0.0007896292954683304,-0.13027840852737427,0.03821374848484993,-0.9680198431015015,
0,2022-09-07 20:13:16.2710,00:07,60,0,2022-09-07 20:13:20.4240,1662552800.42363,-0.0008151936096732548,-0.010565026360453346,-0.007666708146120111,0.0005950927734375,-0.054901123046875,-1.00408935546875,89.26405334472656,-82.80484008789062,-73.58302307128906,2022-09-07 20:13:23.3650,1662552803.364901,-0.0024847567547112703,0.0006122908089309931,0.0016976678743958473,-0.13133122026920319,0.03848838806152344,-0.9690269231796265,
0,2022-09-07 20:13:16.2710,00:07,60,0,2022-09-07 20:13:20.4400,1662552800.440095,0.0007004113666908397,-0.00961001679355093,-0.006056827267167212,0.0005950927734375,-0.056060791015625,-1.0040740966796875,89.14912414550781,-82.57659912109375,-72.92131042480469,2022-09-07 20:13:23.3950,1662552803.3948689,0.0015725689008831978,0.0027412218041718006,0.0014055194333195686,-0.1305224895477295,0.03909873217344284,-0.9686301350593567,
0,2022-09-07 20:13:16.2710,00:07,60,0,2022-09-07 20:13:20.4570,1662552800.4567199,-0.0012825783809821611,-0.01060550640902255,-0.006684800652207896,0.00030517578125,-0.0548858642578125,-1.004913330078125,89.13043212890625,-82.81103515625,-73.66935729980469,2022-09-07 20:13:23.4300,1662552803.429932,-0.12300781905651093,0.09518486261367798,-0.0389503538608551,-0.19619883596897125,-0.016075599938631058,-1.0669116973876953,
0,2022-09-07 20:13:16.2710,00:07,60,0,2022-09-07 20:13:20.4730,1662552800.4733129,-0.0010828412992262182,-0.008528240758760745,-0.008109059203182273,0.0002288818359375,-0.05633544921875,-1.0056304931640625,89.27433776855469,-83.1297607421875,-73.80282592773438,2022-09-07 20:13:23.4550,1662552803.454527,-0.1287839561700821,-0.47933724522590637,0.02512599155306816,-0.09417545795440674,0.05472388491034508,-0.9378075003623962,
0,2022-09-07 20:13:16.2710,00:07,60,0,2022-09-07 20:13:20.4900,1662552800.490232,-0.0024700819110484934,-0.007324225629935921,-0.008889365402575488,0.001007080078125,-0.05548095703125,-1.004241943359375,89.29922485351562,-82.72993469238281,-74.02529907226562,2022-09-07 20:13:23.4850,1662552803.4851398,0.09729951620101929,0.3351740539073944,-0.004193014465272427,-0.17513854801654816,0.07541466131806374,-0.9737572073936462,
0,2022-09-07 20:13:16.2710,00:07,60,0,2022-09-07 20:13:20.5070,1662552800.506562,-0.0011134676517621294,-0.013092898867156559,-0.00648160146103485,0.0003204345703125,-0.0550994873046875,-1.00433349609375,89.34281921386719,-82.60324096679688,-73.59097290039062,2022-09-07 20:13:23.5140,1662552803.514396,-0.056818414479494095,-0.1996193379163742,0.0022145509719848633,-0.09179553389549255,0.02704443410038948,-0.9605583548545837,
0,2022-09-07 20:13:16.2710,00:07,60,0,2022-09-07 20:13:20.5230,1662552800.523365,0.0002929477199087162,-0.012108594528263272,-0.006514358342442825,0.001007080078125,-0.0556488037109375,-1.0047149658203125,89.34281921386719,-82.60324096679688,-73.59097290039062,2022-09-07 20:13:23.5440,1662552803.544393,0.04338435083627701,0.12757503986358643,-0.000696871429681778,-0.1598341166973114,0.046072039753198624,-0.9721550345420837,
0,2022-09-07 20:13:16.2710,00:07,60,0,2022-09-07 20:13:20.5410,1662552800.540806,-0.0007057376888709981,-0.009016398186572268,-0.006950584128997804,0.0002593994140625,-0.055023193359375,-1.0043792724609375,89.31387329101562,-83.00062561035156,-72.15345764160156,2022-09-07 20:13:23.5740,1662552803.574379,-0.026554785668849945,-0.09013119339942932,-0.00377814844250679,-0.11349336802959442,0.0334225669503212,-0.9665245413780212,
0,2022-09-07 20:13:16.2710,00:07,60,0,2022-09-07 20:13:20.5580,1662552800.558167,-0.002509230379072658,-0.011137073362602366,-0.007615042820972574,0.0012054443359375,-0.0550689697265625,-1.004119873046875,89.14849853515625,-82.61257934570312,-73.77992248535156,2022-09-07 20:13:23.6050,1662552803.604869,0.01674448698759079,0.056720834225416183,-0.0003340942785143852,-0.14422443509101868,0.041235025972127914,-0.9716057181358337,
0,2022-09-07 20:13:16.2710,00:07,60,0,2022-09-07 20:13:20.5750,1662552800.575125,-0.0028991171626602586,-0.011700864565372142,-0.00705231688263883,0.001251220703125,-0.0551605224609375,-1.0050048828125,89.0931396484375,-82.51516723632812,-74.10916137695312,2022-09-07 20:13:23.6340,1662552803.6342869,-0.010109232738614082,-0.037019241601228714,0.0024814000353217125,-0.12528826296329498,0.036764200776815414,-0.9680961966514587,
0,2022-09-07 20:13:16.2710,00:07,60,0,2022-09-07 20:13:20.5930,1662552800.592566,-0.0017496968361820596,-0.010233462804738481,-0.005964415577341462,0.0011749267578125,-0.055511474609375,-1.0041351318359375,89.05633544921875,-82.68338012695312,-74.2733154296875,2022-09-07 20:13:23.6640,1662552803.66394,0.00601274473592639,0.020130066201090813,0.005894878879189491,-0.13850241899490356,0.04108244553208351,-0.9691185355186462,
0,2022-09-07 20:13:16.2710,00:07,60,0,2022-09-07 20:13:20.6090,1662552800.609058,-0.0005731122665850521,-0.01293497341451486,-0.006844324001503642,4.57763671875e-05,-0.0554962158203125,-1.004150390625,89.17613220214844,-82.66188049316406,-74.31912231445312,2022-09-07 20:13:23.6940,1662552803.693962,-0.004112060647457838,-0.008378274738788605,-0.001122443936765194,-0.1309645026922226,0.03891567885875702,-0.9679893851280212,
0,2022-09-07 20:13:16.2710,00:07,60,0,2022-09-07 20:13:20.6260,1662552800.625653,-0.003419498839661742,-0.008043279124257315,-0.006065349382655465,0.000274658203125,-0.0554656982421875,-1.0050506591796875,89.14906311035156,-82.52780151367188,-73.63104248046875,2022-09-07 20:13:23.7240,1662552803.723546,0.0016757873818278313,-0.0037987027317285538,-0.0020104479044675827,-0.13270407915115356,0.03890043497085571,-0.9699882864952087,
0,2022-09-07 20:13:16.2710,00:07,60,0,2022-09-07 20:13:20.6420,1662552800.642462,-0.0022178805558179895,-0.009009207651629055,-0.0059460397658199155,0.0005340576171875,-0.0544891357421875,-1.004974365234375,89.14906311035156,-82.52780151367188,-73.63104248046875,2022-09-07 20:13:23.7560,1662552803.7557158,-0.0003913582768291235,0.008086185902357101,-0.001940140500664711,-0.13303974270820618,0.039510779082775116,-0.9686912894248962,
0,2022-09-07 20:13:16.2710,00:07,60,0,2022-09-07 20:13:20.6590,1662552800.6592278,-0.004729241463762711,-0.009048888751871235,-0.004924717487774528,0.000823974609375,-0.05511474609375,-1.004791259765625,89.22164916992188,-82.62171936035156,-73.99943542480469,2022-09-07 20:13:23.7830,1662552803.78343,-0.000557806110009551,-0.008680809289216995,-0.0012251883745193481,-0.13175803422927856,0.037069372832775116,-0.9679130911827087,
0,2022-09-07 20:13:16.2710,00:07,60,0,2022-09-07 20:13:20.6760,1662552800.675953,-0.0021483720513669215,-0.00951387667819907,-0.005918076574374083,0.000274658203125,-0.055450439453125,-1.0054168701171875,89.13420104980469,-82.446044921875,-73.77555847167969,2022-09-07 20:13:23.8140,1662552803.813735,0.0044894167222082615,0.007561543490737677,0.001195092685520649,-0.13456565141677856,0.04143337905406952,-0.9681419730186462,
0,2022-09-07 20:13:16.2710,00:07,60,0,2022-09-07 20:13:20.6930,1662552800.692552,0.0002687129539889951,-0.011177819727280578,-0.00676123337549317,0.0,-0.0553131103515625,-1.00360107421875,89.0477294921875,-82.53254699707031,-74.20114135742188,2022-09-07 20:13:23.8440,1662552803.84431,-0.002327742986381054,-0.0017059911042451859,0.0010078717023134232,-0.1322004795074463,0.03886989876627922,-0.9687981009483337,
0,2022-09-07 20:13:16.2710,00:07,60,0,2022-09-07 20:13:20.7090,1662552800.709296,-0.0017640779060684873,-0.010567423205434417,-0.007252053964394774,0.001129150390625,-0.055755615234375,-1.004913330078125,89.03204345703125,-82.28231811523438,-74.13497924804688,2022-09-07 20:13:23.8750,1662552803.8745918,0.0005498025566339493,0.0011782124638557434,-0.0004352955147624016,-0.13368059694766998,0.03981595113873482,-0.9695305228233337,
0,2022-09-07 20:13:16.2710,00:07,60,0,2022-09-07 20:13:20.7260,1662552800.725515,-0.0016860472861291657,-0.005956159777962216,-0.007716509258504593,0.0004425048828125,-0.0551910400390625,-1.004669189453125,89.14044189453125,-82.99468994140625,-74.04426574707031,2022-09-07 20:13:23.9060,1662552803.905529,0.0029855300672352314,0.00033771898597478867,-0.0029383469372987747,-0.1320173740386963,0.03996853902935982,-0.9697441458702087,
0,2022-09-07 20:13:16.2710,00:07,60,0,2022-09-07 20:13:20.7420,1662552800.742494,-0.0015536881799522275,-0.010904579399438449,-0.005557750878886362,0.000213623046875,-0.0554962158203125,-1.0045623779296875,89.14044189453125,-82.99468994140625,-74.04426574707031,2022-09-07 20:13:23.9330,1662552803.932842,-0.0002355633769184351,-0.001688414253294468,-0.0041937073692679405,-0.1328108161687851,0.03969386965036392,-0.9685997366905212,
0,2022-09-07 20:13:16.2710,00:07,60,0,2022-09-07 20:13:20.7590,1662552800.759212,-0.002309759613425723,-0.01157915810355552,-0.008810535834309144,0.000457763671875,-0.0540008544921875,-1.004638671875,89.08389282226562,-82.90313720703125,-74.17726135253906,2022-09-07 20:13:23.9630,1662552803.9632468,-0.002089656423777342,0.002961997874081135,0.0027197524905204773,-0.1333753615617752,0.038351088762283325,-0.9699119925498962,
0,2022-09-07 20:13:16.2710,00:07,60,0,2022-09-07 20:13:20.7760,1662552800.7759,0.00024767398137736914,-0.010937336280846423,-0.006032858817356498,0.0007171630859375,-0.0562744140625,-1.00494384765625,89.25819396972656,-82.74836730957031,-74.12905883789062,2022-09-07 20:13:23.9930,1662552803.992906,-0.0017373200971633196,0.0003867209888994694,-0.0005194507539272308,-0.1321088969707489,0.03845789656043053,-0.9666466116905212,
0,2022-09-07 20:13:16.2710,00:07,60,0,2022-09-07 20:13:20.7930,1662552800.792712,-0.0036482643772995484,-0.009605755735806805,-0.00587866179024091,3.0517578125e-05,-0.055419921875,-1.004608154296875,89.06776428222656,-82.25244140625,-74.679443359375,2022-09-07 20:13:24.0230,1662552804.022897,-0.000122112687677145,-0.0033041536808013916,-0.0010433485731482506,-0.1336652785539627,0.039815932512283325,-0.9687370657920837,
0,2022-09-07 20:13:16.2710,00:07,60,0,2022-09-07 20:13:20.8100,1662552800.809688,-0.001492169158771397,-0.00750771742904238,-0.0063644223730713635,0.000762939453125,-0.0552825927734375,-1.0043792724609375,89.14375305175781,-82.63005065917969,-74.43486022949219,2022-09-07 20:13:24.0530,1662552804.052886,0.0011207843199372292,0.004420078359544277,0.0011608442291617393,-0.1341535896062851,0.037344012409448624,-0.9687065482139587,
0,2022-09-07 20:13:16.2710,00:07,60,0,2022-09-07 20:13:20.8260,1662552800.82571,-0.004112187039191351,-0.007590808055052853,-0.007543137471540434,0.000244140625,-0.0547637939453125,-1.0050506591796875,89.16694641113281,-82.70677185058594,-74.21318054199219,,,,,,,,,,
0,2022-09-07 20:13:16.2710,00:07,60,0,2022-09-07 20:13:20.8420,1662552800.8424091,-0.0003198456469185165,-0.007700796608073125,-0.006106894695660701,0.000152587890625,-0.05474853515625,-1.005401611328125,89.16694641113281,-82.70677185058594,-74.21318054199219,,,,,,,,,,
0,2022-09-07 20:13:16.2710,00:07,60,0,2022-09-07 20:13:20.8590,1662552800.8591042,0.0014972291648425477,-0.011470234814971279,-0.006938599904092447,0.00048828125,-0.055694580078125,-1.004730224609375,89.11634826660156,-82.82594299316406,-74.07958984375,,,,,,,,,,
0,2022-09-07 20:13:16.2710,00:07,60,0,2022-09-07 20:13:20.8760,1662552800.8759189,-0.002489256670897064,-0.0128287132870207,-0.00536946538981776,0.000885009765625,-0.0560455322265625,-1.005523681640625,89.08724975585938,-82.90309143066406,-74.32286071777344,,,,,,,,,,
0,2022-09-07 20:13:16.2710,00:07,60,0,2022-09-07 20:13:20.8920,1662552800.892488,-0.0008828379013612674,-0.010802580329688415,-0.0064214140203990595,0.0008544921875,-0.05487060546875,-1.00543212890625,89.15776062011719,-82.59611511230469,-74.11001586914062,,,,,,,,,,
0,2022-09-07 20:13:16.2710,00:07,60,0,2022-09-07 20:13:20.9090,1662552800.9092488,-0.0008178567707633341,-0.010817494031792857,-0.004440554801598121,0.0006256103515625,-0.0561065673828125,-1.0051727294921875,89.00071716308594,-82.38241577148438,-74.45529174804688,,,,,,,,,,
0,2022-09-07 20:13:16.2710,00:07,60,0,2022-09-07 20:13:20.9260,1662552800.925703,-0.00025912557406470985,-0.006015281954161975,-0.007872570498383236,0.00018310546875,-0.054290771484375,-1.004913330078125,89.083984375,-82.56387329101562,-74.0806884765625,,,,,,,,,,
0,2022-09-07 20:13:16.2710,00:07,60,0,2022-09-07 20:13:20.9420,1662552800.94244,-0.003244795472152544,-0.01122016398861284,-0.006146043163684866,0.0006103515625,-0.0559539794921875,-1.005401611328125,89.083984375,-82.56387329101562,-74.0806884765625,,,,,,,,,,
0,2022-09-07 20:13:16.2710,00:07,60,0,2022-09-07 20:13:20.9590,1662552800.959084,-0.0006367618166379459,-0.010138387953822652,-0.006652576403017937,0.000335693359375,-0.0555419921875,-1.005523681640625,89.11756896972656,-82.67987060546875,-74.03071594238281,,,,,,,,,,
0,2022-09-07 20:13:16.2710,00:07,60,0,2022-09-07 20:13:20.9760,1662552800.97579,-0.002604038913879479,-0.007537544833251268,-0.007078948493539623,-4.57763671875e-05,-0.05487060546875,-1.005126953125,89.18418884277344,-82.56344604492188,-74.27581787109375,,,,,,,,,,
0,2022-09-07 20:13:16.2710,00:07,60,0,2022-09-07 20:13:20.9920,1662552800.992434,-0.003436809386747257,-0.011848670005871538,-0.00750904900958742,0.0004730224609375,-0.05511474609375,-1.0054931640625,89.24288940429688,-82.51472473144531,-74.65682983398438,,,,,,,,,,
0,2022-09-07 20:13:16.2710,00:07,60,0,2022-09-07 20:13:21.0090,1662552801.009196,-0.0009917611899455084,-0.009502691401620737,-0.0077905451368087955,0.000152587890625,-0.05487060546875,-1.005645751953125,89.09654235839844,-82.54222106933594,-74.09443664550781,,,,,,,,,,
0,2022-09-07 20:13:16.2710,00:07,60,0,2022-09-07 20:13:21.0260,1662552801.025779,-0.001055943372216418,-0.011917379561995583,-0.005026183925306546,0.000579833984375,-0.055694580078125,-1.005767822265625,89.08544921875,-82.55844116210938,-74.12216186523438,,,,,,,,,,
0,2022-09-07 20:13:16.2710,00:07,60,0,2022-09-07 20:13:21.0430,1662552801.042536,-0.0027172232602078465,-0.007877630504454386,-0.006838731363214476,-6.103515625e-05,-0.0555419921875,-1.0059967041015625,89.08544921875,-82.55844116210938,-74.12216186523438,,,,,,,,,,
0,2022-09-07 20:13:16.2710,00:07,60,0,2022-09-07 20:13:21.0590,1662552801.0591888,-0.0007861651537913911,-0.010305101838061612,-0.007282147684712669,0.0005035400390625,-0.0548858642578125,-1.00494384765625,89.2071533203125,-82.54814147949219,-73.14631652832031,,,,,,,,,,
0,2022-09-07 20:13:16.2710,00:07,60,0,2022-09-07 20:13:21.0760,1662552801.075828,-0.00015686018820566713,-0.010737865515199488,-0.005213670466048125,0.001495361328125,-0.0548553466796875,-1.0059051513671875,89.21882629394531,-82.6295166015625,-73.00694274902344,,,,,,,,,,
