SessionID,SessionDate,SessionDuration,SessionFrequency,RecordID,Timestamp,timeIntervalSince1970,GyroX,GyroY,GyroZ,AccX,AccY,AccZ,MagX,MagY,MagZ,WatchTimestamp,WatchtImeIntervalSince1970,WatchGyroX,WatchGyroY,WatchGyroZ,WatchAccX,WatchAccY,WatchAccZ
0,2022-09-06 15:22:11.2500,00:31,60,0,2022-09-06 15:22:11.3100,1662448931.310049,-0.0007374293058429411,-0.00992054137665417,-0.009796704385965485,0.0137786865234375,-0.0375518798828125,-1.0045928955078125,98.47653198242188,-70.41387939453125,-72.75344848632812,,,,,,,,,,
0,2022-09-06 15:22:11.2500,00:31,60,0,2022-09-06 15:22:11.3250,1662448931.324748,0.00031691616971942936,-0.00929336693994051,-0.006641391126439604,0.014190673828125,-0.038177490234375,-1.0052032470703125,98.43128967285156,-70.18577575683594,-72.28416442871094,,,,,,,,,,
0,2022-09-06 15:22:11.2500,00:31,60,0,2022-09-06 15:22:11.3410,1662448931.341166,-0.003611246438147447,-0.008040882279276244,-0.006949518864561772,0.0139312744140625,-0.0379791259765625,-1.0040283203125,98.43128967285156,-70.18577575683594,-72.28416442871094,,,,,,,,,,
0,2022-09-06 15:22:11.2500,00:31,60,0,2022-09-06 15:22:11.3580,1662448931.358296,-0.00022210763491260847,-0.012594621427202734,-0.008835835864664897,0.0147705078125,-0.036773681640625,-1.004119873046875,98.54287719726562,-70.34207153320312,-72.32980346679688,,,,,,,,,,
0,2022-09-06 15:22:11.2500,00:31,60,0,2022-09-06 15:22:11.3750,1662448931.374874,-0.0016503609275221038,-0.008833439019683826,-0.007812383057747445,0.0142974853515625,-0.0369720458984375,-1.004425048828125,98.40892028808594,-70.28265380859375,-73.83200073242188,,,,,,,,,,
0,2022-09-06 15:22:11.2500,00:31,60,0,2022-09-06 15:22:11.3910,1662448931.3911881,-0.0024663534855223824,-0.011726164595727893,-0.00559396986971144,0.013824462890625,-0.0385894775390625,-1.004241943359375,98.51437377929688,-70.3330078125,-73.43899536132812,,,,,,,,,,
0,2022-09-06 15:22:11.2500,00:31,60,0,2022-09-06 15:22:11.4080,1662448931.407609,-0.002918824554726845,-0.011514443289066595,-0.008127701330812828,0.0142822265625,-0.037811279296875,-1.00457763671875,98.70747375488281,-70.67922973632812,-71.60052490234375,,,,,,,,,,
0,2022-09-06 15:22:11.2500,00:31,60,0,2022-09-06 15:22:11.4250,1662448931.424675,-0.0012618057244795432,-0.007138869618066406,-0.006507966755826634,0.0146484375,-0.03802490234375,-1.0045928955078125,98.51173400878906,-70.11495971679688,-73.33447265625,,,,,,,,,,
0,2022-09-06 15:22:11.2500,00:31,60,0,2022-09-06 15:22:11.4410,1662448931.441181,-0.0008066714941850012,-0.011719240376893687,-0.007360444620760999,0.014739990234375,-0.038055419921875,-1.004364013671875,98.51173400878906,-70.11495971679688,-73.33447265625,,,,,,,,,,
0,2022-09-06 15:22:11.2500,00:31,60,0,2022-09-06 15:22:11.4580,1662448931.457761,-0.000307595105904152,-0.010468886245101486,-0.006987602068149905,0.01422119140625,-0.03802490234375,-1.005096435546875,98.5584716796875,-70.5704345703125,-72.81541442871094,,,,,,,,,,
0,2022-09-06 15:22:11.2500,00:31,60,0,2022-09-06 15:22:11.4740,1662448931.474443,-0.0025885925795570194,-0.008307464704393176,-0.005701295261641633,0.01422119140625,-0.0380096435546875,-1.0037994384765625,98.61506652832031,-70.73968505859375,-70.40133666992188,,,,,,,,,,
0,2022-09-06 15:22:11.2500,00:31,60,0,2022-09-06 15:22:11.4920,1662448931.492208,-0.0017241304897172988,-0.011587147586825757,-0.006373210804668625,0.0149078369140625,-0.03802490234375,-1.0050506591796875,98.27806091308594,-70.18119812011719,-73.34678649902344,,,,,,,,,,
0,2022-09-06 15:22:11.2500,00:31,60,0,2022-09-06 15:22:11.5080,1662448931.50836,-0.0021275993948643036,-0.00677401654872555,-0.007733819805590108,0.014129638671875,-0.038055419921875,-1.003814697265625,98.53309631347656,-70.37942504882812,-74.03288269042969,,,,,,,,,,
0,2022-09-06 15:22:11.2500,00:31,60,0,2022-09-06 15:22:11.5250,1662448931.524966,-0.003788080334528708,-0.008909072794642075,-0.0059620187323603906,0.0144195556640625,-0.0372314453125,-1.0040130615234375,98.53878784179688,-70.36375427246094,-73.44297790527344,,,,,,,,,,
0,2022-09-06 15:22:11.2500,00:31,60,0,2022-09-06 15:22:11.5420,1662448931.542018,-0.0034977957757100714,-0.009575928331597917,-0.0069452578068176455,0.0135040283203125,-0.0379638671875,-1.004638671875,98.53878784179688,-70.36375427246094,-73.44297790527344,,,,,,,,,,
0,2022-09-06 15:22:11.2500,00:31,60,0,2022-09-06 15:22:11.5580,1662448931.5582209,-0.0036788907298354596,-0.010692325460559133,-0.005692506830044372,0.013916015625,-0.037689208984375,-1.0043182373046875,98.40985107421875,-70.17716979980469,-74.37129211425781,,,,,,,,,,
0,2022-09-06 15:22:11.2500,00:31,60,0,2022-09-06 15:22:11.5750,1662448931.574693,0.0014660701800886205,-0.00998978356499623,-0.006960171508922089,0.01416015625,-0.036956787109375,-1.0033111572265625,98.47004699707031,-70.08013916015625,-74.02751159667969,,,,,,,,,,
0,2022-09-06 15:22:11.2500,00:31,60,0,2022-09-06 15:22:11.5910,1662448931.591285,-4.048004856920442e-05,-0.00829654574392385,-0.0067548417888769795,0.0146636962890625,-0.0381011962890625,-1.004608154296875,98.48681640625,-70.46194458007812,-73.85173034667969,,,,,,,,,,
0,2022-09-06 15:22:11.2500,00:31,60,0,2022-09-06 15:22:11.6100,1662448931.6102471,0.0008343683695218253,-0.008394816388147775,-0.007387076231661791,0.0143585205078125,-0.03692626953125,-1.0039520263671875,98.41630554199219,-70.00936889648438,-74.84931945800781,,,,,,,,,,
0,2022-09-06 15:22:11.2500,00:31,60,0,2022-09-06 15:22:11.6260,1662448931.6257482,-0.0013736584902628711,-0.01311340520755017,-0.005541239280127871,0.01409912109375,-0.0370941162109375,-1.00396728515625,98.40194702148438,-70.18637084960938,-75.09986877441406,,,,,,,,,,
0,2022-09-06 15:22:11.2500,00:31,60,0,2022-09-06 15:22:11.6430,1662448931.643116,-0.002192314209353229,-0.010437194628129542,-0.0071276843414880735,0.0143585205078125,-0.0372161865234375,-1.003692626953125,98.40194702148438,-70.18637084960938,-75.09986877441406,,,,,,,,,,
0,2022-09-06 15:22:11.2500,00:31,60,0,2022-09-06 15:22:11.6600,1662448931.660152,-9.587379924285257e-05,-0.00901107186439211,-0.0064208813881810435,0.0149078369140625,-0.0383148193359375,-1.003509521484375,98.45442199707031,-70.3294677734375,-74.80680847167969,,,,,,,,,,
0,2022-09-06 15:22:11.2500,00:31,60,0,2022-09-06 15:22:11.6760,1662448931.676433,-0.0043220441330895955,-0.008837433761318944,-0.005638977292133779,0.014251708984375,-0.038177490234375,-1.004364013671875,98.39775085449219,-69.77201843261719,-75.437744140625,,,,,,,,,,
0,2022-09-06 15:22:11.2500,00:31,60,0,2022-09-06 15:22:11.6930,1662448931.693468,-0.0023217438383310797,-0.00963451787557966,-0.006020608276342133,0.0137176513671875,-0.0384674072265625,-1.004058837890625,98.38771057128906,-70.143798828125,-75.04942321777344,,,,,,,,,,
0,2022-09-06 15:22:11.2500,00:31,60,0,2022-09-06 15:22:11.7100,1662448931.710254,-0.0022975090724113587,-0.01120951134425252,-0.006436327722503503,0.0144805908203125,-0.0377960205078125,-1.004608154296875,98.41729736328125,-69.94332885742188,-75.22633361816406,,,,,,,,,,
0,2022-09-06 15:22:11.2500,00:31,60,0,2022-09-06 15:22:11.7260,1662448931.7258701,-0.001849299060951023,-0.008074171792902235,-0.005819006981823136,0.014739990234375,-0.037628173828125,-1.00439453125,98.27763366699219,-69.99925231933594,-76.46209716796875,,,,,,,,,,
0,2022-09-06 15:22:11.2500,00:31,60,0,2022-09-06 15:22:11.7430,1662448931.743112,-0.0019742013160757394,-0.010547449497258823,-0.0049348374999168285,0.014434814453125,-0.0369873046875,-1.0045166015625,98.27763366699219,-69.99925231933594,-76.46209716796875,,,,,,,,,,
0,2022-09-06 15:22:11.2500,00:31,60,0,2022-09-06 15:22:11.7610,1662448931.7605882,-0.0010860370925343133,-0.009296296417139596,-0.005274124222792924,0.0140838623046875,-0.0375213623046875,-1.00396728515625,98.50416564941406,-70.27987670898438,-74.79121398925781,,,,,,,,,,
0,2022-09-06 15:22:11.2500,00:31,60,0,2022-09-06 15:22:11.7750,1662448931.775374,-0.002606702074969558,-0.013880661917601997,-0.004612062375799224,0.0141143798828125,-0.038421630859375,-1.003936767578125,98.2886962890625,-70.15505981445312,-75.00166320800781,,,,,,,,,,
0,2022-09-06 15:22:11.2500,00:31,60,0,2022-09-06 15:22:11.7910,1662448931.791364,-0.00010120012142301106,-0.013586116301039234,-0.006661631150724206,0.014678955078125,-0.03790283203125,-1.0037994384765625,98.27554321289062,-70.0384521484375,-75.13508605957031,,,,,,,,,,
0,2022-09-06 15:22:11.2500,00:31,60,0,2022-09-06 15:22:11.8100,1662448931.809743,-0.0008753810503090456,-0.012639362533516064,-0.004775047834512074,0.013916015625,-0.03778076171875,-1.00421142578125,98.35159301757812,-70.05514526367188,-75.34840393066406,,,,,,,,,,
0,2022-09-06 15:22:11.2500,00:31,60,0,2022-09-06 15:22:11.8240,1662448931.824341,-0.0013502226726701738,-0.011080081715274671,-0.0059018312917246,0.013946533203125,-0.0379180908203125,-1.0041656494140625,98.35623168945312,-70.26353454589844,-74.8555908203125,,,,,,,,,,
0,2022-09-06 15:22:11.2500,00:31,60,0,2022-09-06 15:22:11.8420,1662448931.8415298,-0.0008412925883560313,-0.008979646563529176,-0.004979045974012144,0.014068603515625,-0.0381622314453125,-1.0045623779296875,98.35623168945312,-70.26353454589844,-74.8555908203125,,,,,,,,,,
0,2022-09-06 15:22:11.2500,00:31,60,0,2022-09-06 15:22:11.8580,1662448931.858077,-0.005103415596918844,-0.00821984670452957,-0.004999019682187738,0.01397705078125,-0.0373687744140625,-1.002838134765625,98.33743286132812,-70.40765380859375,-74.59696960449219,,,,,,,,,,
0,2022-09-06 15:22:11.2500,00:31,60,0,2022-09-06 15:22:11.8760,1662448931.875877,-0.0010010822537607855,-0.010784470834275875,-0.006808105010678565,0.0145111083984375,-0.0382080078125,-1.004791259765625,98.25741577148438,-69.95848083496094,-74.23475646972656,,,,,,,,,,
0,2022-09-06 15:22:11.2500,00:31,60,0,2022-09-06 15:22:11.8920,1662448931.892379,0.003066363679117235,-0.012035623914395102,-0.005165200934208683,0.0136871337890625,-0.0375518798828125,-1.0042724609375,98.36924743652344,-69.98509216308594,-74.79774475097656,,,,,,,,,,
0,2022-09-06 15:22:11.2500,00:31,60,0,2022-09-06 15:22:11.9110,1662448931.910606,0.0018090853284908265,-0.008446215397186305,-0.005100486119719757,0.0151519775390625,-0.03753662109375,-1.0040740966796875,98.3310546875,-70.23956298828125,-75.277099609375,,,,,,,,,,
0,2022-09-06 15:22:11.2500,00:31,60,0,2022-09-06 15:22:11.9270,1662448931.92711,0.0011741877246159362,-0.00869948201685284,-0.00473323620539783,0.0145263671875,-0.037109375,-1.0037384033203125,98.50581359863281,-69.92497253417969,-75.47175598144531,,,,,,,,,,
0,2022-09-06 15:22:11.2500,00:31,60,0,2022-09-06 15:22:11.9430,1662448931.943387,-0.0019110843982408613,-0.010690993880014094,-0.006150304221428993,0.0137176513671875,-0.037994384765625,-1.0042877197265625,98.28001403808594,-69.73646545410156,-75.07266235351562,,,,,,,,,,
0,2022-09-06 15:22:11.2500,00:31,60,0,2022-09-06 15:22:11.9610,1662448931.960637,-0.0013693974325187442,-0.007130613818687161,-0.0033507892835376975,0.01434326171875,-0.0377960205078125,-1.0042877197265625,98.28001403808594,-69.73646545410156,-75.07266235351562,,,,,,,,,,
0,2022-09-06 15:22:11.2500,00:31,60,0,2022-09-06 15:22:11.9770,1662448931.9769301,-0.0021960426348793397,-0.008995359213960642,-0.004689294047411523,0.014251708984375,-0.037261962890625,-1.0037689208984375,98.33721923828125,-69.93562316894531,-74.94053649902344,,,,,,,,,,
0,2022-09-06 15:22:11.2500,00:31,60,0,2022-09-06 15:22:11.9940,1662448931.9935179,-0.0006229133789695338,-0.011321896742253866,-0.0062344601118754965,0.01434326171875,-0.03759765625,-1.0039520263671875,98.35104370117188,-69.90419006347656,-75.40911865234375,,,,,,,,,,
0,2022-09-06 15:22:11.2500,00:31,60,0,2022-09-06 15:22:12.0100,1662448932.010381,-0.0007494135307482976,-0.009490707176715381,-0.006712763843653728,0.012969970703125,-0.0376434326171875,-1.005035400390625,98.44337463378906,-70.27037048339844,-75.45497131347656,,,,,,,,,,
0,2022-09-06 15:22:11.2500,00:31,60,0,2022-09-06 15:22:12.0260,1662448932.0264668,-0.000727042977591632,-0.007640342851328327,-0.008611597700880224,0.0146331787109375,-0.037750244140625,-1.004638671875,98.39390563964844,-70.26235961914062,-75.09878540039062,,,,,,,,,,
0,2022-09-06 15:22:11.2500,00:31,60,0,2022-09-06 15:22:12.0430,1662448932.043422,-0.0006551376281594926,-0.00688054299232872,-0.00762569546533289,0.0145416259765625,-0.0377960205078125,-1.0048065185546875,98.45704650878906,-70.13037109375,-74.73097229003906,,,,,,,,,,
0,2022-09-06 15:22:11.2500,00:31,60,0,2022-09-06 15:22:12.0600,1662448932.060293,-0.003548129520312569,-0.009577526228251964,-0.005017395493709284,0.0142364501953125,-0.0372772216796875,-1.0041351318359375,98.45704650878906,-70.13037109375,-74.73097229003906,,,,,,,,,,
0,2022-09-06 15:22:11.2500,00:31,60,0,2022-09-06 15:22:12.0770,1662448932.076812,-0.003695136012484943,-0.01041322617831883,-0.006166283187969468,0.0142974853515625,-0.0382080078125,-1.004302978515625,98.2567138671875,-70.12530517578125,-75.32473754882812,,,,,,,,,,
0,2022-09-06 15:22:11.2500,00:31,60,0,2022-09-06 15:22:12.0940,1662448932.0937328,-0.0017435715656748773,-0.01221405570743041,-0.008838232709645968,0.0142059326171875,-0.037200927734375,-1.0044708251953125,98.30613708496094,-69.88761901855469,-75.00596618652344,,,,,,,,,,
0,2022-09-06 15:22:11.2500,00:31,60,0,2022-09-06 15:22:12.1100,1662448932.1100001,-0.0010506170500362594,-0.012172776710534182,-0.005673065754086794,0.01361083984375,-0.03802490234375,-1.00457763671875,98.47865295410156,-69.92166137695312,-75.05142211914062,,,,,,,,,,
0,2022-09-06 15:22:11.2500,00:31,60,0,2022-09-06 15:22:12.1240,1662448932.1239219,-0.0010506170500362594,-0.012172776710534182,-0.005673065754086794,0.01361083984375,-0.03802490234375,-1.00457763671875,98.50372314453125,-70.16986083984375,-73.71974182128906,,,,,,,,,,
0,2022-09-06 15:22:11.2500,00:31,60,0,2022-09-06 15:22:12.1420,1662448932.141897,-0.0011528824358953023,-0.007603324912176225,-0.00589277654401833,0.014373779296875,-0.0387420654296875,-1.0036468505859375,98.24934387207031,-69.78981018066406,-74.52009582519531,,,,,,,,,,
0,2022-09-06 15:22:11.2500,00:31,60,0,2022-09-06 15:22:12.1600,1662448932.159889,0.0015819176875070675,-0.009621468386238272,-0.007844340990828397,0.0149993896484375,-0.0375518798828125,-1.0042266845703125,98.24934387207031,-69.78981018066406,-74.52009582519531,,,,,,,,,,
0,2022-09-06 15:22:11.2500,00:31,60,0,2022-09-06 15:22:12.1760,1662448932.1762629,-0.002757969624886059,-0.012073707117983234,-0.005238437864185861,0.014556884765625,-0.03778076171875,-1.003997802734375,98.51065063476562,-70.26329040527344,-75.01919555664062,,,,,,,,,,
0,2022-09-06 15:22:11.2500,00:31,60,0,2022-09-06 15:22:12.1910,1662448932.191103,-0.0013222594812243417,-0.010324809230128199,-0.004005660595588182,0.0139923095703125,-0.0378265380859375,-1.0048065185546875,98.19886779785156,-69.72012329101562,-75.319091796875,,,,,,,,,,
0,2022-09-06 15:22:11.2500,00:31,60,0,2022-09-06 15:22:12.2100,1662448932.210215,-0.0012002867032987127,-0.010826016147281112,-0.007214237076915648,0.0145111083984375,-0.0367431640625,-1.00335693359375,98.449462890625,-69.9815673828125,-75.26966857910156,,,,,,,,,,
0,2022-09-06 15:22:11.2500,00:31,60,0,2022-09-06 15:22:12.2250,1662448932.224513,-0.00043223104491986036,-0.009123723578502461,-0.005347627468879111,0.013641357421875,-0.037689208984375,-1.0035247802734375,98.17076110839844,-69.82411193847656,-75.08326721191406,,,,,,,,,,
0,2022-09-06 15:22:11.2500,00:31,60,0,2022-09-06 15:22:12.2410,1662448932.241466,-0.0026421221174676122,-0.009021191876534412,-0.006573480518642583,0.0144805908203125,-0.0381927490234375,-1.0036773681640625,98.17076110839844,-69.82411193847656,-75.08326721191406,,,,,,,,,,
0,2022-09-06 15:22:11.2500,00:31,60,0,2022-09-06 15:22:12.2580,1662448932.2580528,0.0004181162911424404,-0.01225506838821763,-0.008489092290736579,0.0139923095703125,-0.0380859375,-1.00421142578125,98.25872802734375,-69.99147033691406,-74.00567626953125,,,,,,,,,,
0,2022-09-06 15:22:11.2500,00:31,60,0,2022-09-06 15:22:12.2750,1662448932.2748451,-0.0035529232102747116,-0.009015332922136236,-0.00679452288911916,0.0138092041015625,-0.0377960205078125,-1.0046234130859375,98.33061218261719,-70.413818359375,-73.98490905761719,,,,,,,,,,
0,2022-09-06 15:22:11.2500,00:31,60,0,2022-09-06 15:22:12.2910,1662448932.2911239,-0.0031169637398287403,-0.011828962613804951,-0.007528756401654006,0.01434326171875,-0.0379638671875,-1.00384521484375,98.45356750488281,-70.32919311523438,-75.14334106445312,,,,,,,,,,
0,2022-09-06 15:22:11.2500,00:31,60,0,2022-09-06 15:22:12.3080,1662448932.308173,0.00042397524554061474,-0.011882225835606537,-0.008007326449541245,0.0140838623046875,-0.0379791259765625,-1.00323486328125,98.38343811035156,-69.91339111328125,-75.77900695800781,,,,,,,,,,
0,2022-09-06 15:22:11.2500,00:31,60,0,2022-09-06 15:22:12.3250,1662448932.324844,-0.002180329984447872,-0.010185525905117055,-0.004600078150893868,0.013427734375,-0.0382232666015625,-1.0050201416015625,98.42938232421875,-69.92103576660156,-75.69805908203125,,,,,,,,,,
0,2022-09-06 15:22:11.2500,00:31,60,0,2022-09-06 15:22:12.3410,1662448932.341488,-0.002453303996180994,-0.010005496215427697,-0.004874650059281038,0.0146026611328125,-0.0383148193359375,-1.0044708251953125,98.52816772460938,-70.23411560058594,-75.5023193359375,,,,,,,,,,
0,2022-09-06 15:22:11.2500,00:31,60,0,2022-09-06 15:22:12.3580,1662448932.358463,-0.0007928230565165892,-0.011674765586689364,-0.007125820128725017,0.014556884765625,-0.037322998046875,-1.00372314453125,98.52816772460938,-70.23411560058594,-75.5023193359375,,,,,,,,,,
0,2022-09-06 15:22:11.2500,00:31,60,0,2022-09-06 15:22:12.3750,1662448932.375122,0.000328634078515778,-0.009371131243770823,-0.008181230868723419,0.0149383544921875,-0.037994384765625,-1.0038299560546875,98.4093017578125,-69.90150451660156,-75.5762939453125,,,,,,,,,,
0,2022-09-06 15:22:11.2500,00:31,60,0,2022-09-06 15:22:12.3920,1662448932.391745,-0.001852761170368126,-0.010479006257243786,-0.00784913468079054,0.014312744140625,-0.03765869140625,-1.0033721923828125,98.48390197753906,-70.144287109375,-75.99507141113281,,,,,,,,,,
0,2022-09-06 15:22:11.2500,00:31,60,0,2022-09-06 15:22:12.4080,1662448932.408437,-0.0018695390852356251,-0.010679275971217745,-0.005878395474131903,0.013946533203125,-0.03741455078125,-1.004425048828125,98.57217407226562,-70.13536071777344,-75.94157409667969,,,,,,,,,,
0,2022-09-06 15:22:11.2500,00:31,60,0,2022-09-06 15:22:12.4260,1662448932.4257941,-0.00024128239476117898,-0.011211908189233594,-0.006093845206319313,0.014404296875,-0.0379638671875,-1.0049896240234375,98.5791015625,-70.11233520507812,-75.72946166992188,,,,,,,,,,
0,2022-09-06 15:22:11.2500,00:31,60,0,2022-09-06 15:22:12.4420,1662448932.442356,0.0007536745884924245,-0.009891512920772307,-0.007580421726801544,0.01434326171875,-0.0378570556640625,-1.0037689208984375,98.4556884765625,-69.8905029296875,-75.92098999023438,,,,,,,,,,
0,2022-09-06 15:22:11.2500,00:31,60,0,2022-09-06 15:22:12.4590,1662448932.45906,-0.0018644790791644747,-0.009357016489993403,-0.005006742849348968,0.014556884765625,-0.0371551513671875,-1.0038909912109375,98.4556884765625,-69.8905029296875,-75.92098999023438,,,,,,,,,,
0,2022-09-06 15:22:11.2500,00:31,60,0,2022-09-06 15:22:12.4770,1662448932.4770179,-0.0023960460327442906,-0.008248875160411432,-0.008026767525498824,0.0143890380859375,-0.03759765625,-1.0052947998046875,98.43095397949219,-70.12184143066406,-75.69772338867188,,,,,,,,,,
0,2022-09-06 15:22:11.2500,00:31,60,0,2022-09-06 15:22:12.4940,1662448932.493572,0.0010058759437229282,-0.009511479833218,-0.006184126367272999,0.0145111083984375,-0.03778076171875,-1.004974365234375,98.43521118164062,-69.99127197265625,-75.80442810058594,,,,,,,,,,
0,2022-09-06 15:22:11.2500,00:31,60,0,2022-09-06 15:22:12.5100,1662448932.5099468,-0.0010937602596955431,-0.010494718907675255,-0.0070541810954018866,0.0144195556640625,-0.0375213623046875,-1.0046539306640625,98.50048828125,-70.16265869140625,-76.12333679199219,,,,,,,,,,
0,2022-09-06 15:22:11.2500,00:31,60,0,2022-09-06 15:22:12.5270,1662448932.5268521,-0.0030192257278228323,-0.010249708087387965,-0.005073588192709957,0.014739990234375,-0.0378875732421875,-1.004852294921875,98.34164428710938,-69.95242309570312,-76.39752197265625,,,,,,,,,,
0,2022-09-06 15:22:11.2500,00:31,60,0,2022-09-06 15:22:12.5440,1662448932.5435371,-0.002869822390669387,-0.010890464645661029,-0.008642224053416137,0.01422119140625,-0.038330078125,-1.004547119140625,98.45651245117188,-69.85321044921875,-76.0570068359375,,,,,,,,,,
0,2022-09-06 15:22:11.2500,00:31,60,0,2022-09-06 15:22:12.5600,1662448932.5602021,-0.002432531339678376,-0.00893170966390775,-0.004999019682187738,0.0141143798828125,-0.037567138671875,-1.00543212890625,98.45651245117188,-69.85321044921875,-76.0570068359375,,,,,,,,,,
0,2022-09-06 15:22:11.2500,00:31,60,0,2022-09-06 15:22:12.5770,1662448932.576798,-0.0015321165751225857,-0.010596717977425289,-0.005273325274465899,0.0142059326171875,-0.037841796875,-1.0052642822265625,98.38859558105469,-69.71560668945312,-75.71485900878906,,,,,,,,,,
0,2022-09-06 15:22:11.2500,00:31,60,0,2022-09-06 15:22:12.5930,1662448932.593164,-0.00013875069279312832,-0.008286159415672541,-0.006959905192813081,0.0143890380859375,-0.0381622314453125,-1.005157470703125,98.18524169921875,-69.59828186035156,-76.0701904296875,,,,,,,,,,
0,2022-09-06 15:22:11.2500,00:31,60,0,2022-09-06 15:22:12.6100,1662448932.610158,-0.000936900071489876,-0.010224940689250226,-0.006468285655584454,0.014404296875,-0.0371856689453125,-1.004058837890625,98.37847900390625,-70.17709350585938,-75.96757507324219,,,,,,,,,,
0,2022-09-06 15:22:11.2500,00:31,60,0,2022-09-06 15:22:12.6270,1662448932.627005,-0.001408812216651917,-0.008341286850237183,-0.007002249454145341,0.0146484375,-0.0385589599609375,-1.0046234130859375,98.50509643554688,-70.08589172363281,-76.11605834960938,,,,,,,,,,
0,2022-09-06 15:22:11.2500,00:31,60,0,2022-09-06 15:22:12.6430,1662448932.6434278,-0.0010500844178182437,-0.010044378367342855,-0.008471781743651065,0.01397705078125,-0.0370941162109375,-1.005035400390625,98.32536315917969,-69.72268676757812,-75.87986755371094,,,,,,,,,,
0,2022-09-06 15:22:11.2500,00:31,60,0,2022-09-06 15:22:12.6600,1662448932.660365,-0.0009052084545179331,-0.007094661143971091,-0.0037702371552251774,0.0143890380859375,-0.0374603271484375,-1.006195068359375,98.32536315917969,-69.72268676757812,-75.87986755371094,,,,,,,,,,
0,2022-09-06 15:22:11.2500,00:31,60,0,2022-09-06 15:22:12.6770,1662448932.677012,0.00019201391459471308,-0.012820457487641452,-0.0056461678270769925,0.0139312744140625,-0.03759765625,-1.005096435546875,98.51695251464844,-70.30912780761719,-75.38887023925781,,,,,,,,,,
0,2022-09-06 15:22:11.2500,00:31,60,0,2022-09-06 15:22:12.6930,1662448932.693262,-0.002505768269655555,-0.007285609794129772,-0.005314071639144112,0.01483154296875,-0.0379180908203125,-1.005615234375,98.54844665527344,-70.16128540039062,-75.99650573730469,,,,,,,,,,
0,2022-09-06 15:22:11.2500,00:31,60,0,2022-09-06 15:22:12.7100,1662448932.710223,-0.0022996396012834224,-0.007344998286438539,-0.005278917912755066,0.01519775390625,-0.0377349853515625,-1.0053253173828125,98.48370361328125,-70.1461181640625,-75.90884399414062,,,,,,,,,,
0,2022-09-06 15:22:11.2500,00:31,60,0,2022-09-06 15:22:12.7270,1662448932.726637,-0.0015060175964398091,-0.010274741801634709,-0.005861351243155395,0.0140533447265625,-0.0374755859375,-1.0055694580078125,98.51129150390625,-69.75091552734375,-75.83302307128906,,,,,,,,,,
0,2022-09-06 15:22:11.2500,00:31,60,0,2022-09-06 15:22:12.7440,1662448932.7436361,-0.0005326322180158477,-0.008640892472871095,-0.006034456714010546,0.014617919921875,-0.0382843017578125,-1.005401611328125,98.68667602539062,-70.22752380371094,-76.32437133789062,,,,,,,,,,
0,2022-09-06 15:22:11.2500,00:31,60,0,2022-09-06 15:22:12.7620,1662448932.76152,-0.004259726163581741,-0.008816394788707318,-0.007890946309904784,0.01385498046875,-0.0368804931640625,-1.006378173828125,98.66395568847656,-70.34681701660156,-76.07771301269531,,,,,,,,,,
0,2022-09-06 15:22:11.2500,00:31,60,0,2022-09-06 15:22:12.7760,1662448932.7764869,-0.004259726163581741,-0.008816394788707318,-0.007890946309904784,0.01385498046875,-0.0368804931640625,-1.006378173828125,98.66395568847656,-70.34681701660156,-76.07771301269531,,,,,,,,,,
0,2022-09-06 15:22:11.2500,00:31,60,0,2022-09-06 15:22:12.7940,1662448932.793621,-0.0034493262438706294,-0.008223308813946673,-0.007970042194280135,0.0143585205078125,-0.0376739501953125,-1.0064544677734375,98.60182189941406,-70.09397888183594,-75.87933349609375,,,,,,,,,,
0,2022-09-06 15:22:11.2500,00:31,60,0,2022-09-06 15:22:12.8100,1662448932.810261,-0.0007488808985302818,-0.008388424801531584,-0.005571333000445766,0.013885498046875,-0.037078857421875,-1.0068206787109375,98.46701049804688,-69.60989379882812,-75.7154541015625,,,,,,,,,,
0,2022-09-06 15:22:11.2500,00:31,60,0,2022-09-06 15:22:12.8270,1662448932.826908,-0.0013432984538359677,-0.0064493772118448915,-0.006434729825849455,0.013946533203125,-0.0372772216796875,-1.006195068359375,98.49948120117188,-70.07125854492188,-76.10427856445312,,,,,,,,,,
0,2022-09-06 15:22:11.2500,00:31,60,0,2022-09-06 15:22:12.8430,1662448932.843471,-0.00338381248105468,-0.008508000734476143,-0.006926083046969075,0.014312744140625,-0.03765869140625,-1.0062713623046875,98.4202880859375,-69.83952331542969,-76.13656616210938,,,,,,,,,,
0,2022-09-06 15:22:11.2500,00:31,60,0,2022-09-06 15:22:12.8600,1662448932.860395,-0.001709483103721863,-0.011036938505615388,-0.005277053699992011,0.013580322265625,-0.0377349853515625,-1.006622314453125,98.72796630859375,-70.09471130371094,-75.87484741210938,,,,,,,,,,
0,2022-09-06 15:22:11.2500,00:31,60,0,2022-09-06 15:22:12.8770,1662448932.876905,-0.000496146911081762,-0.010348777679938912,-0.0067668260137823365,0.0145416259765625,-0.03704833984375,-1.00604248046875,98.72796630859375,-70.09471130371094,-75.87484741210938,,,,,,,,,,
0,2022-09-06 15:22:11.2500,00:31,60,0,2022-09-06 15:22:12.8940,1662448932.893508,-0.0010482202050551882,-0.008525843913779673,-0.005363872751528593,0.0147705078125,-0.03790283203125,-1.0068359375,98.71742248535156,-70.353271484375,-75.75856018066406,,,,,,,,,,
0,2022-09-06 15:22:11.2500,00:31,60,0,2022-09-06 15:22:12.9100,1662448932.9100652,-0.0019923108114882782,-0.009359679651083483,-0.005871471255297697,0.0139312744140625,-0.0373382568359375,-1.0060577392578125,98.51222229003906,-70.23085021972656,-75.96664428710938,,,,,,,,,,
0,2022-09-06 15:22:11.2500,00:31,60,0,2022-09-06 15:22:12.9270,1662448932.9269571,-0.0007054713727619902,-0.011256382979437917,-0.0057606837539504,0.01495361328125,-0.0378265380859375,-1.0059814453125,98.53190612792969,-69.76353454589844,-76.04425048828125,,,,,,,,,,
0,2022-09-06 15:22:11.2500,00:31,60,0,2022-09-06 15:22:12.9430,1662448932.943277,-0.0027979170412372476,-0.007823035702107762,-0.00627387489600867,0.0138702392578125,-0.038299560546875,-1.006591796875,98.4912109375,-70.16493225097656,-76.09220886230469,,,,,,,,,,
0,2022-09-06 15:22:11.2500,00:31,60,0,2022-09-06 15:22:12.9600,1662448932.960006,-0.002639192640268525,-0.0073077140311774294,-0.00564137413711485,0.0141754150390625,-0.037506103515625,-1.006744384765625,98.39309692382812,-69.94511413574219,-75.98599243164062,,,,,,,,,,
0,2022-09-06 15:22:11.2500,00:31,60,0,2022-09-06 15:22:12.9770,1662448932.977333,0.00035686358607061794,-0.009281382715035154,-0.007025685271738039,0.01361083984375,-0.0377044677734375,-1.005950927734375,98.39309692382812,-69.94511413574219,-75.98599243164062,,,,,,,,,,
0,2022-09-06 15:22:11.2500,00:31,60,0,2022-09-06 15:22:12.9940,1662448932.993623,0.0015678029337296475,-0.012434565445688972,-0.0041225733674426605,0.014404296875,-0.037017822265625,-1.0067901611328125,98.50318908691406,-70.14755249023438,-75.536376953125,,,,,,,,,,
0,2022-09-06 15:22:11.2500,00:31,60,0,2022-09-06 15:22:13.0100,1662448933.009856,-0.0014559501679463195,-0.011873437404009276,-0.004828843688531675,0.01416015625,-0.03790283203125,-1.0066375732421875,98.64630126953125,-70.1663818359375,-75.99183654785156,,,,,,,,,,
0,2022-09-06 15:22:11.2500,00:31,60,0,2022-09-06 15:22:13.0270,1662448933.026665,-0.0016748620095508328,-0.00907152562113691,-0.00656495840315433,0.01519775390625,-0.038330078125,-1.0067596435546875,98.62129211425781,-70.19796752929688,-76.1104736328125,,,,,,,,,,
0,2022-09-06 15:22:11.2500,00:31,60,0,2022-09-06 15:22:13.0430,1662448933.043282,-0.003279416566323574,-0.012347746394152388,-0.005623797273920327,0.01458740234375,-0.03778076171875,-1.006988525390625,98.41984558105469,-69.98539733886719,-75.8787841796875,,,,,,,,,,
0,2022-09-06 15:22:11.2500,00:31,60,0,2022-09-06 15:22:13.0600,1662448933.060347,0.0005155879870393405,-0.012136291403600096,-0.005485046581127199,0.014617919921875,-0.0375518798828125,-1.0067596435546875,98.65168762207031,-70.27542114257812,-75.85560607910156,,,,,,,,,,
0,2022-09-06 15:22:11.2500,00:31,60,0,2022-09-06 15:22:13.0770,1662448933.0767121,-0.0021513015285660087,-0.009369799663225783,-0.006101834689589551,0.0142822265625,-0.0381011962890625,-1.005828857421875,98.65168762207031,-70.27542114257812,-75.85560607910156,,,,,,,,,,
0,2022-09-06 15:22:11.2500,00:31,60,0,2022-09-06 15:22:13.0930,1662448933.093392,-0.0032043154235833395,-0.012160792485628825,-0.00401231849831338,0.0142974853515625,-0.03741455078125,-1.00555419921875,98.60995483398438,-70.07469177246094,-75.83139038085938,,,,,,,,,,
0,2022-09-06 15:22:11.2500,00:31,60,0,2022-09-06 15:22:13.1100,1662448933.110256,-0.0023409185981796503,-0.00866219776159173,-0.004397411591938838,0.0140380859375,-0.0384979248046875,-1.0065155029296875,98.50144958496094,-69.94876098632812,-75.97215270996094,,,,,,,,,,
0,2022-09-06 15:22:11.2500,00:31,60,0,2022-09-06 15:22:13.1270,1662448933.127007,-0.0009680590562438031,-0.011051585891610823,-0.004914597475632226,0.0145111083984375,-0.0369720458984375,-1.0059814453125,98.52763366699219,-70.15055847167969,-75.56855773925781,,,,,,,,,,
0,2022-09-06 15:22:11.2500,00:31,60,0,2022-09-06 15:22:13.1430,1662448933.1431088,-0.0013206615845702942,-0.006038717771754672,-0.0042645198535438845,0.0149078369140625,-0.0370635986328125,-1.0070953369140625,98.76849365234375,-70.03337097167969,-75.82450866699219,,,,,,,,,,
0,2022-09-06 15:22:11.2500,00:31,60,0,2022-09-06 15:22:13.1600,1662448933.160255,-0.002275404835363701,-0.009900833984587585,-0.0062264706286052586,0.014190673828125,-0.037567138671875,-1.0065460205078125,98.63020324707031,-70.28208923339844,-76.09878540039062,,,,,,,,,,
0,2022-09-06 15:22:11.2500,00:31,60,0,2022-09-06 15:22:13.1770,1662448933.176618,-0.0010346380834957841,-0.007292534012963978,-0.004592354983732639,0.0139923095703125,-0.03717041015625,-1.00634765625,98.63020324707031,-70.28208923339844,-76.09878540039062,,,,,,,,,,
0,2022-09-06 15:22:11.2500,00:31,60,0,2022-09-06 15:22:13.1930,1662448933.193347,0.00038748993860652917,-0.008598281895429829,-0.006171343194040619,0.0138397216796875,-0.0379638671875,-1.0073089599609375,98.62129211425781,-70.04801940917969,-76.18255615234375,,,,,,,,,,
0,2022-09-06 15:22:11.2500,00:31,60,0,2022-09-06 15:22:13.2100,1662448933.209965,-0.0034136398852635677,-0.010070211029916624,-0.007378287800064529,0.013885498046875,-0.0372314453125,-1.0063934326171875,98.60440063476562,-70.15855407714844,-76.19659423828125,,,,,,,,,,
0,2022-09-06 15:22:11.2500,00:31,60,0,2022-09-06 15:22:13.2270,1662448933.226788,-0.00132891738394954,-0.010468087296774462,-0.004320712552544556,0.0140838623046875,-0.0371551513671875,-1.0059814453125,98.62347412109375,-70.10585021972656,-75.94729614257812,,,,,,,,,,
0,2022-09-06 15:22:11.2500,00:31,60,0,2022-09-06 15:22:13.2440,1662448933.243628,0.00047244477738005684,-0.009251555310826266,-0.005106078758008923,0.0139617919921875,-0.037689208984375,-1.0068817138671875,98.5836181640625,-69.81497192382812,-75.97677612304688,,,,,,,,,,
0,2022-09-06 15:22:11.2500,00:31,60,0,2022-09-06 15:22:13.2600,1662448933.2604709,0.0014615428062354858,-0.010387393515745061,-0.007241933952252472,0.014801025390625,-0.03741455078125,-1.0074615478515625,98.79327392578125,-70.16755676269531,-75.55471801757812,,,,,,,,,,
0,2022-09-06 15:22:11.2500,00:31,60,0,2022-09-06 15:22:13.2770,1662448933.276669,0.00024314660752423444,-0.010971424742799437,-0.007170827551147357,0.014190673828125,-0.03753662109375,-1.006744384765625,98.79327392578125,-70.16755676269531,-75.55471801757812,,,,,,,,,,
0,2022-09-06 15:22:11.2500,00:31,60,0,2022-09-06 15:22:13.2930,1662448933.2928848,0.0005424859140491408,-0.008508533366694158,-0.004190483975239682,0.0149688720703125,-0.0377044677734375,-1.00592041015625,98.61396789550781,-70.11843872070312,-75.60647583007812,,,,,,,,,,
0,2022-09-06 15:22:11.2500,00:31,60,0,2022-09-06 15:22:13.3090,1662448933.309057,-0.0017462347267649565,-0.00820679721518818,-0.004526841220916689,0.0144500732421875,-0.037811279296875,-1.006805419921875,98.57261657714844,-69.91165161132812,-75.8458251953125,,,,,,,,,,
0,2022-09-06 15:22:11.2500,00:31,60,0,2022-09-06 15:22:13.3270,1662448933.326881,0.0016215987877492481,-0.009911752945056909,-0.007046457928240656,0.0146026611328125,-0.03759765625,-1.0072174072265625,98.42333984375,-69.76438903808594,-75.62283325195312,,,,,,,,,,
0,2022-09-06 15:22:11.2500,00:31,60,0,2022-09-06 15:22:13.3430,1662448933.3433928,-0.001954493924009153,-0.009267534277366742,-0.004803011025957906,0.014556884765625,-0.0366973876953125,-1.0054779052734375,98.66114807128906,-70.16616821289062,-74.43453979492188,,,,,,,,,,
0,2022-09-06 15:22:11.2500,00:31,60,0,2022-09-06 15:22:13.3600,1662448933.3601918,-0.0011749866729429599,-0.008823585323650532,-0.008348743701289404,0.0139007568359375,-0.0374298095703125,-1.0067596435546875,98.45268249511719,-70.03141784667969,-74.23736572265625,,,,,,,,,,
0,2022-09-06 15:22:11.2500,00:31,60,0,2022-09-06 15:22:13.3770,1662448933.376698,-0.0010245180713534829,-0.011410580006553504,-0.005749498477372068,0.01397705078125,-0.0377044677734375,-1.0075836181640625,98.45268249511719,-70.03141784667969,-74.23736572265625,,,,,,,,,,
0,2022-09-06 15:22:11.2500,00:31,60,0,2022-09-06 15:22:13.3930,1662448933.393293,0.0011251855605584782,-0.011076885921966576,-0.0064174192787639405,0.0148162841796875,-0.0380096435546875,-1.006866455078125,98.61293029785156,-70.082763671875,-74.087158203125,,,,,,,,,,
0,2022-09-06 15:22:11.2500,00:31,60,0,2022-09-06 15:22:13.4100,1662448933.4099889,-0.002485261929261945,-0.008173241385453183,-0.0077170418907226085,0.0135955810546875,-0.0379180908203125,-1.007049560546875,98.62149047851562,-70.33573913574219,-74.41560363769531,,,,,,,,,,
0,2022-09-06 15:22:11.2500,00:31,60,0,2022-09-06 15:22:13.4270,1662448933.426838,-0.0010594054816335209,-0.009829727583482469,-0.006525543619021157,0.01416015625,-0.0379180908203125,-1.005523681640625,98.41810607910156,-70.06808471679688,-74.38136291503906,,,,,,,,,,
0,2022-09-06 15:22:11.2500,00:31,60,0,2022-09-06 15:22:13.4430,1662448933.4432049,-0.0019214707264921705,-0.01228968948238866,-0.007183078092161722,0.0145111083984375,-0.0375823974609375,-1.0065460205078125,98.64521789550781,-70.16523742675781,-74.52337646484375,,,,,,,,,,
0,2022-09-06 15:22:11.2500,00:31,60,0,2022-09-06 15:22:13.4600,1662448933.4599218,-0.0005608617255706876,-0.009547965140152085,-0.0026751453149845947,0.0132598876953125,-0.038177490234375,-1.0065765380859375,98.623291015625,-69.98735046386719,-74.55992126464844,,,,,,,,,,
0,2022-09-06 15:22:11.2500,00:31,60,0,2022-09-06 15:22:13.4770,1662448933.4767652,-0.0002258360604387194,-0.009455287134217328,-0.00873543469156891,0.014617919921875,-0.037017822265625,-1.005859375,98.623291015625,-69.98735046386719,-74.55992126464844,,,,,,,,,,
0,2022-09-06 15:22:11.2500,00:31,60,0,2022-09-06 15:22:13.4940,1662448933.493675,-0.0019355854802695902,-0.010818825612337898,-0.005509547663155928,0.0141448974609375,-0.0378570556640625,-1.0059051513671875,98.73814392089844,-70.11688232421875,-73.95719909667969,,,,,,,,,,
0,2022-09-06 15:22:11.2500,00:31,60,0,2022-09-06 15:22:13.5100,1662448933.509997,-0.00025859294184669404,-0.011828163665477929,-0.007579889094583528,0.01568603515625,-0.037689208984375,-1.0067291259765625,98.57949829101562,-69.98165893554688,-74.34867858886719,,,,,,,,,,
0,2022-09-06 15:22:11.2500,00:31,60,0,2022-09-06 15:22:13.5270,1662448933.526931,0.0013587447881584272,-0.010685401241724927,-0.009753561176306201,0.01531982421875,-0.0373382568359375,-1.0066680908203125,98.70184326171875,-70.25492858886719,-74.62261962890625,,,,,,,,,,
0,2022-09-06 15:22:11.2500,00:31,60,0,2022-09-06 15:22:13.5440,1662448933.5436811,-0.001978728689928874,-0.011783688875273606,-0.009459015559743439,0.01446533203125,-0.038543701171875,-1.0066375732421875,98.75068664550781,-70.20970153808594,-74.69378662109375,,,,,,,,,,
0,2022-09-06 15:22:11.2500,00:31,60,0,2022-09-06 15:22:13.5600,1662448933.560261,-0.0003757720298101805,-0.011233479794063235,-0.00886486432054676,0.01318359375,-0.0383758544921875,-1.0065155029296875,98.55686950683594,-69.86235046386719,-74.12118530273438,,,,,,,,,,
0,2022-09-06 15:22:11.2500,00:31,60,0,2022-09-06 15:22:13.5770,1662448933.576637,0.0012154667215121644,-0.00943691132269578,-0.006364688689180371,0.014190673828125,-0.0382080078125,-1.0061798095703125,98.55686950683594,-69.86235046386719,-74.12118530273438,,,,,,,,,,
0,2022-09-06 15:22:11.2500,00:31,60,0,2022-09-06 15:22:13.5940,1662448933.5937262,-0.0006269081206046527,-0.010884339375153847,-0.006421680336508067,0.0143280029296875,-0.0382080078125,-1.0061798095703125,98.66648864746094,-69.84237670898438,-74.25299072265625,,,,,,,,,,
0,2022-09-06 15:22:11.2500,00:31,60,0,2022-09-06 15:22:13.6100,1662448933.610496,0.0009560748313384466,-0.01024384913298979,-0.009165535207616706,0.0148468017578125,-0.0371551513671875,-1.006622314453125,98.75926208496094,-70.13693237304688,-74.33993530273438,,,,,,,,,,
0,2022-09-06 15:22:11.2500,00:31,60,0,2022-09-06 15:22:13.6270,1662448933.626666,-0.002254099546643067,-0.012295015804568819,-0.0063234096922841435,0.0140838623046875,-0.0378265380859375,-1.006561279296875,98.718017578125,-70.23670959472656,-74.21247863769531,,,,,,,,,,
0,2022-09-06 15:22:11.2500,00:31,60,0,2022-09-06 15:22:13.6440,1662448933.643511,-0.00030999195088522334,-0.010576744269249694,-0.009000419220031794,0.014892578125,-0.0367431640625,-1.006072998046875,98.70941162109375,-70.00155639648438,-74.45169067382812,,,,,,,,,,
0,2022-09-06 15:22:11.2500,00:31,60,0,2022-09-06 15:22:13.6600,1662448933.66012,0.0004026699568199808,-0.011414574748188622,-0.007562045915279997,0.014495849609375,-0.03753662109375,-1.00592041015625,98.804931640625,-70.12916564941406,-74.56449890136719,,,,,,,,,,
0,2022-09-06 15:22:11.2500,00:31,60,0,2022-09-06 15:22:13.6770,1662448933.677252,-0.0008793757919441645,-0.009971407753474684,-0.008000668546816048,0.0135345458984375,-0.037689208984375,-1.006683349609375,98.86297607421875,-69.986328125,-73.73709106445312,,,,,,,,,,
0,2022-09-06 15:22:11.2500,00:31,60,0,2022-09-06 15:22:13.6930,1662448933.6934419,-0.0008096009713840885,-0.011506720121905364,-0.005939914495312733,0.0140838623046875,-0.0369873046875,-1.005859375,98.86297607421875,-69.986328125,-73.73709106445312,,,,,,,,,,
0,2022-09-06 15:22:11.2500,00:31,60,0,2022-09-06 15:22:13.7100,1662448933.709964,0.0003126551119753026,-0.00925874584576948,-0.00895088442375632,0.0152435302734375,-0.037994384765625,-1.00677490234375,98.79869079589844,-70.05278015136719,-74.43962097167969,,,,,,,,,,
0,2022-09-06 15:22:11.2500,00:31,60,0,2022-09-06 15:22:13.7270,1662448933.726789,-0.001915611772093996,-0.010834538262769365,-0.010356234530991134,0.0143280029296875,-0.0381011962890625,-1.0057830810546875,98.73844909667969,-69.93331909179688,-74.52972412109375,,,,,,,,,,
0,2022-09-06 15:22:11.2500,00:31,60,0,2022-09-06 15:22:13.7440,1662448933.743713,-0.0023473101847958405,-0.010788199259801986,-0.006208627449301728,0.014129638671875,-0.0385284423828125,-1.00732421875,98.82325744628906,-70.03486633300781,-74.57173156738281,,,,,,,,,,
0,2022-09-06 15:22:11.2500,00:31,60,0,2022-09-06 15:22:13.7600,1662448933.76022,-0.0010884339375153847,-0.011274226158741447,-0.007970042194280135,0.014129638671875,-0.0369110107421875,-1.0054931640625,98.89042663574219,-70.34140014648438,-74.79446411132812,,,,,,,,,,
0,2022-09-06 15:22:11.2500,00:31,60,0,2022-09-06 15:22:13.7770,1662448933.776609,-0.0035316179215540778,-0.00996794564405758,-0.007567372237460155,0.0142974853515625,-0.0376129150390625,-1.0064697265625,98.89042663574219,-70.34140014648438,-74.79446411132812,,,,,,,,,,
0,2022-09-06 15:22:11.2500,00:31,60,0,2022-09-06 15:22:13.7930,1662448933.793366,-0.002610696816604677,-0.01091070466994563,-0.009628925237290493,0.01434326171875,-0.0379486083984375,-1.006744384765625,98.71958923339844,-70.07304382324219,-74.23637390136719,,,,,,,,,,
0,2022-09-06 15:22:11.2500,00:31,60,0,2022-09-06 15:22:13.8100,1662448933.809915,-0.0014865765204822308,-0.011788748881344756,-0.006939931484637487,0.0139312744140625,-0.037872314453125,-1.00665283203125,98.80484008789062,-70.18949890136719,-74.58399963378906,,,,,,,,,,
0,2022-09-06 15:22:11.2500,00:31,60,0,2022-09-06 15:22:13.8270,1662448933.827071,-0.0022983080207383826,-0.0071117053749475976,-0.0072826803169306845,0.014373779296875,-0.0372314453125,-1.0066986083984375,98.71331787109375,-69.8681640625,-74.52095031738281,,,,,,,,,,
0,2022-09-06 15:22:11.2500,00:31,60,0,2022-09-06 15:22:13.8430,1662448933.843152,-0.0003502056833454198,-0.008783904223408351,-0.008861668527238666,0.014862060546875,-0.0373992919921875,-1.0059051513671875,98.91578674316406,-70.01811218261719,-74.57160949707031,,,,,,,,,,
0,2022-09-06 15:22:11.2500,00:31,60,0,2022-09-06 15:22:13.8590,1662448933.859058,-0.0034176346268986863,-0.008293616266724764,-0.006232063266894425,0.013671875,-0.0374908447265625,-1.006378173828125,98.71540832519531,-70.20060729980469,-74.24285888671875,,,,,,,,,,
0,2022-09-06 15:22:11.2500,00:31,60,0,2022-09-06 15:22:13.8770,1662448933.876882,-0.0014937670554254446,-0.008954346533173422,-0.0047974183876687395,0.0143890380859375,-0.0376434326171875,-1.0060272216796875,98.65008544921875,-69.84609985351562,-74.47166442871094,,,,,,,,,,
0,2022-09-06 15:22:11.2500,00:31,60,0,2022-09-06 15:22:13.8940,1662448933.8935509,0.00024660871694133745,-0.0108659635636323,-0.007748733507694551,0.0141754150390625,-0.037445068359375,-1.0055084228515625,98.65008544921875,-69.84609985351562,-74.47166442871094,,,,,,,,,,
0,2022-09-06 15:22:11.2500,00:31,60,0,2022-09-06 15:22:13.9110,1662448933.9109302,-0.0025433188410256724,-0.009727195881514418,-0.006601177393979408,0.01470947265625,-0.03778076171875,-1.0061492919921875,98.85848999023438,-70.13905334472656,-74.73829650878906,,,,,,,,,,
0,2022-09-06 15:22:11.2500,00:31,60,0,2022-09-06 15:22:13.9260,1662448933.926023,-7.456851052221866e-05,-0.009862218148781434,-0.0049388322415519475,0.0144500732421875,-0.037628173828125,-1.006683349609375,98.72323608398438,-70.22494506835938,-74.26223754882812,,,,,,,,,,
0,2022-09-06 15:22:11.2500,00:31,60,0,2022-09-06 15:22:13.9420,1662448933.942494,0.00047191214516204103,-0.007202785484228307,-0.0069212893570069324,0.0139007568359375,-0.037872314453125,-1.0053558349609375,98.994384765625,-70.24945068359375,-74.24330139160156,,,,,,,,,,
0,2022-09-06 15:22:11.2500,00:31,60,0,2022-09-06 15:22:13.9600,1662448933.9599361,-0.0008953547584846399,-0.008986038150145365,-0.007452057362259725,0.0143280029296875,-0.0374603271484375,-1.005889892578125,98.88404846191406,-69.89700317382812,-74.72052001953125,,,,,,,,,,
0,2022-09-06 15:22:11.2500,00:31,60,0,2022-09-06 15:22:13.9760,1662448933.976313,7.909588437535337e-05,-0.010924553107614043,-0.0075146416478765864,0.0133514404296875,-0.0383453369140625,-1.006317138671875,98.79167175292969,-70.0740966796875,-73.7337646484375,,,,,,,,,,
0,2022-09-06 15:22:11.2500,00:31,60,0,2022-09-06 15:22:13.9930,1662448933.993181,-0.0025699504519264647,-0.009160475201545556,-0.0066613648346151985,0.014373779296875,-0.0375213623046875,-1.0065765380859375,98.79167175292969,-70.0740966796875,-73.7337646484375,,,,,,,,,,
0,2022-09-06 15:22:11.2500,00:31,60,0,2022-09-06 15:22:14.0090,1662448934.009097,0.0006255765400596131,-0.008920258071220408,-0.00637507501743168,0.014739990234375,-0.0372314453125,-1.0066070556640625,98.96673583984375,-69.95701599121094,-74.56044006347656,,,,,,,,,,
0,2022-09-06 15:22:11.2500,00:31,60,0,2022-09-06 15:22:14.0250,1662448934.025258,-0.002765692792047289,-0.010194846968932332,-0.007399859404894171,0.0144195556640625,-0.0377349853515625,-1.0068206787109375,98.81837463378906,-69.83561706542969,-74.81967163085938,,,,,,,,,,
0,2022-09-06 15:22:11.2500,00:31,60,0,2022-09-06 15:22:14.0410,1662448934.0411181,-0.0017800568726089629,-0.008447813293840352,-0.007771370376960225,0.0142822265625,-0.0385284423828125,-1.0065765380859375,98.87641906738281,-70.00437927246094,-74.02021789550781,,,,,,,,,,
0,2022-09-06 15:22:11.2500,00:31,60,0,2022-09-06 15:22:14.0580,1662448934.057554,-0.0012016182838437523,-0.009702961115594697,-0.007005445247453436,0.0146484375,-0.03753662109375,-1.005950927734375,98.91737365722656,-70.34027099609375,-71.52198791503906,,,,,,,,,,
0,2022-09-06 15:22:11.2500,00:31,60,0,2022-09-06 15:22:14.0740,1662448934.074053,-0.0012508867640102183,-0.01312086205860239,-0.006127134719945303,0.0144805908203125,-0.03778076171875,-1.0069427490234375,98.91737365722656,-70.34027099609375,-71.52198791503906,,,,,,,,,,
0,2022-09-06 15:22:11.2500,00:31,60,0,2022-09-06 15:22:14.0910,1662448934.090845,-0.0003470098900373247,-0.008114918157580447,-0.004797152071559732,0.01434326171875,-0.0381011962890625,-1.005584716796875,98.8701171875,-70.03587341308594,-71.17919921875,,,,,,,,,,
0,2022-09-06 15:22:11.2500,00:31,60,0,2022-09-06 15:22:14.1080,1662448934.107709,-0.0006069344124290584,-0.008751679974218392,-0.006886668262835902,0.0139007568359375,-0.03753662109375,-1.0063629150390625,98.87855529785156,-70.093505859375,-73.81724548339844,,,,,,,,,,
0,2022-09-06 15:22:11.2500,00:31,60,0,2022-09-06 15:22:14.1250,1662448934.125452,-0.0013353089705657301,-0.010571151630960528,-0.007436877344046273,0.0145263671875,-0.0381317138671875,-1.006378173828125,98.81500244140625,-69.93531799316406,-72.50619506835938,,,,,,,,,,
0,2022-09-06 15:22:11.2500,00:31,60,0,2022-09-06 15:22:14.1420,1662448934.142085,-0.0032290828217210765,-0.003986219519630603,-0.005148156703232176,0.0149078369140625,-0.0377655029296875,-1.0054473876953125,98.74258422851562,-69.63475036621094,-74.34523010253906,,,,,,,,,,
0,2022-09-06 15:22:11.2500,00:31,60,0,2022-09-06 15:22:14.1580,1662448934.157516,-0.0024024376193604808,-0.010883007794608808,-0.005910353407212853,0.0136871337890625,-0.0379180908203125,-1.0060577392578125,98.8543701171875,-70.14691162109375,-71.49055480957031,,,,,,,,,,
0,2022-09-06 15:22:11.2500,00:31,60,0,2022-09-06 15:22:14.1740,1662448934.1743789,-0.0034706315325912633,-0.010408432488356687,-0.0063604276314362445,0.0141754150390625,-0.037567138671875,-1.006927490234375,98.8543701171875,-70.14691162109375,-71.49055480957031,,,,,,,,,,
0,2022-09-06 15:22:11.2500,00:31,60,0,2022-09-06 15:22:14.1910,1662448934.191268,0.0018988338572264968,-0.009534915650810697,-0.00595189872021809,0.0147705078125,-0.037933349609375,-1.0061798095703125,98.71005249023438,-70.3006591796875,-71.47355651855469,,,,,,,,,,
0,2022-09-06 15:22:11.2500,00:31,60,0,2022-09-06 15:22:14.2070,1662448934.207354,-0.004351338905080467,-0.0070467242443496645,-0.005391303310756409,0.0140380859375,-0.0372772216796875,-1.0047607421875,98.84774780273438,-70.15966796875,-72.91642761230469,,,,,,,,,,
0,2022-09-06 15:22:11.2500,00:31,60,0,2022-09-06 15:22:14.2250,1662448934.224642,-0.0020999025195274795,-0.009767675930083621,-0.007442203666226431,0.015472412109375,-0.03802490234375,-1.007080078125,98.73149108886719,-69.82974243164062,-73.38560485839844,,,,,,,,,,
0,2022-09-06 15:22:11.2500,00:31,60,0,2022-09-06 15:22:14.2420,1662448934.242114,-0.0006700513302639364,-0.008334628947511984,-0.005165200934208683,0.014068603515625,-0.037933349609375,-1.006256103515625,98.63916015625,-69.78086853027344,-72.510986328125,,,,,,,,,,
0,2022-09-06 15:22:11.2500,00:31,60,0,2022-09-06 15:22:14.2590,1662448934.258951,-0.001234108849142719,-0.00925208794304428,-0.005142031432724993,0.0138092041015625,-0.037078857421875,-1.0062713623046875,98.60762023925781,-69.94508361816406,-73.53263854980469,,,,,,,,,,
0,2022-09-06 15:22:11.2500,00:31,60,0,2022-09-06 15:22:14.2750,1662448934.274956,-0.000727042977591632,-0.009517605103725181,-0.00670344277983845,0.0150299072265625,-0.0376434326171875,-1.006195068359375,98.60762023925781,-69.94508361816406,-73.53263854980469,,,,,,,,,,
0,2022-09-06 15:22:11.2500,00:31,60,0,2022-09-06 15:22:14.2920,1662448934.291563,-0.0016367788059626998,-0.00953305143804764,-0.0041550639327416275,0.0152740478515625,-0.0384063720703125,-1.0055694580078125,98.72883605957031,-69.82154846191406,-73.546875,,,,,,,,,,
0,2022-09-06 15:22:11.2500,00:31,60,0,2022-09-06 15:22:14.3090,1662448934.3087811,-0.0036621128149679607,-0.01005902575333829,-0.006897587223305227,0.0155181884765625,-0.0381011962890625,-1.00555419921875,98.83831787109375,-70.00401306152344,-73.31135559082031,,,,,,,,,,
0,2022-09-06 15:22:11.2500,00:31,60,0,2022-09-06 15:22:14.3250,1662448934.324821,-0.001356081627068348,-0.01167529821890738,-0.008612929281425265,0.014251708984375,-0.0381011962890625,-1.0063018798828125,98.85501098632812,-69.61859130859375,-73.60626220703125,,,,,,,,,,
0,2022-09-06 15:22:11.2500,00:31,60,0,2022-09-06 15:22:14.3410,1662448934.340829,-0.0033957967059600365,-0.009316802757533207,-0.004986502825064365,0.013763427734375,-0.037872314453125,-1.0051116943359375,98.6278076171875,-69.83720397949219,-73.74761962890625,,,,,,,,,,
0,2022-09-06 15:22:11.2500,00:31,60,0,2022-09-06 15:22:14.3580,1662448934.357589,-0.003054645770320886,-0.00917672048419504,-0.006628607953207224,0.0148162841796875,-0.037841796875,-1.0052337646484375,98.63876342773438,-69.53091430664062,-73.62336730957031,,,,,,,,,,
0,2022-09-06 15:22:11.2500,00:31,60,0,2022-09-06 15:22:14.3750,1662448934.374611,-0.0006860302968044118,-0.006921821989224948,-0.006387858190664061,0.0139617919921875,-0.036529541015625,-1.0057220458984375,98.63876342773438,-69.53091430664062,-73.62336730957031,,,,,,,,,,
0,2022-09-06 15:22:11.2500,00:31,60,0,2022-09-06 15:22:14.3910,1662448934.3912358,0.0022229405618891403,-0.011446000049051558,-0.004070908042295124,0.0137481689453125,-0.0373992919921875,-1.005645751953125,98.74168395996094,-69.72744750976562,-72.95648193359375,,,,,,,,,,
0,2022-09-06 15:22:11.2500,00:31,60,0,2022-09-06 15:22:14.4080,1662448934.408371,-0.0036527917511526833,-0.010372479813640617,-0.005866943881444562,0.0144195556640625,-0.037811279296875,-1.005767822265625,98.7205810546875,-69.79908752441406,-73.19837951660156,,,,,,,,,,
0,2022-09-06 15:22:11.2500,00:31,60,0,2022-09-06 15:22:14.4260,1662448934.425575,0.0005544701389544974,-0.012580506673425314,-0.005408347541732917,0.01483154296875,-0.0373687744140625,-1.004913330078125,98.64170837402344,-69.98550415039062,-73.84251403808594,,,,,,,,,,
0,2022-09-06 15:22:11.2500,00:31,60,0,2022-09-06 15:22:14.4420,1662448934.442172,-0.00320937542965449,-0.0090611392928856,-0.005057875542278489,0.0141143798828125,-0.037994384765625,-1.004791259765625,98.59925842285156,-69.80903625488281,-73.44049072265625,,,,,,,,,,
0,2022-09-06 15:22:11.2500,00:31,60,0,2022-09-06 15:22:14.4580,1662448934.458208,-0.0022983080207383826,-0.010729343399711235,-0.006739928086772536,0.01507568359375,-0.0364532470703125,-1.0052032470703125,98.55329895019531,-69.74844360351562,-73.25546264648438,,,,,,,,,,
0,2022-09-06 15:22:11.2500,00:31,60,0,2022-09-06 15:22:14.4750,1662448934.4747329,-0.0039846216229765564,-0.010343983989976768,-0.005898901814525513,0.0139923095703125,-0.0379180908203125,-1.0045166015625,98.59661865234375,-69.83724975585938,-72.70516967773438,,,,,,,,,,
0,2022-09-06 15:22:11.2500,00:31,60,0,2022-09-06 15:22:14.4930,1662448934.493281,-0.0008431568011190868,-0.010043845735124839,-0.0071122380071656135,0.014434814453125,-0.0374298095703125,-1.0048980712890625,98.59661865234375,-69.83724975585938,-72.70516967773438,,,,,,,,,,
0,2022-09-06 15:22:11.2500,00:31,60,0,2022-09-06 15:22:14.5090,1662448934.509019,-0.0012610067761525193,-0.007456318420003851,-0.0048538774027784195,0.0144805908203125,-0.0377044677734375,-1.00555419921875,98.66645812988281,-69.99360656738281,-72.87290954589844,,,,,,,,,,
0,2022-09-06 15:22:11.2500,00:31,60,0,2022-09-06 15:22:14.5250,1662448934.525487,-0.0005081311359871187,-0.007163637016204143,-0.0037518613437036307,0.014129638671875,-0.0376434326171875,-1.004150390625,98.4296875,-69.55711364746094,-73.12348937988281,,,,,,,,,,
0,2022-09-06 15:22:11.2500,00:31,60,0,2022-09-06 15:22:14.5420,1662448934.5423179,0.00014034858944717585,-0.010532003162936364,-0.008748217864801289,0.0141448974609375,-0.03741455078125,-1.005096435546875,98.47157287597656,-69.28359985351562,-73.54983520507812,,,,,,,,,,
0,2022-09-06 15:22:11.2500,00:31,60,0,2022-09-06 15:22:14.5600,1662448934.5601978,-0.004123372315769685,-0.010914965727689758,-0.006837666098778444,0.0145111083984375,-0.0372314453125,-1.0051422119140625,98.578857421875,-69.66281127929688,-73.38188171386719,,,,,,,,,,
0,2022-09-06 15:22:11.2500,00:31,60,0,2022-09-06 15:22:14.5770,1662448934.5767689,-0.00020959077778923604,-0.011346131508173587,-0.005509813979264936,0.0142364501953125,-0.0379180908203125,-1.0049591064453125,98.47726440429688,-69.80183410644531,-73.54530334472656,,,,,,,,,,
0,2022-09-06 15:22:11.2500,00:31,60,0,2022-09-06 15:22:14.5940,1662448934.59357,0.0007352987769708776,-0.00878523580395339,-0.005846171224941943,0.0147857666015625,-0.0381317138671875,-1.004852294921875,98.47726440429688,-69.80183410644531,-73.54530334472656,,,,,,,,,,
0,2022-09-06 15:22:11.2500,00:31,60,0,2022-09-06 15:22:14.6090,1662448934.608799,-0.0015132081313830232,-0.007899202109284029,-0.008395881652583806,0.014434814453125,-0.0376129150390625,-1.0045318603515625,98.52745056152344,-69.50083923339844,-73.07395935058594,,,,,,,,,,
0,2022-09-06 15:22:11.2500,00:31,60,0,2022-09-06 15:22:14.6260,1662448934.626402,-0.003758519246428829,-0.013070261997890886,-0.007334079325969214,0.0142364501953125,-0.03753662109375,-1.005645751953125,98.53997802734375,-69.76728820800781,-73.2171630859375,,,,,,,,,,
0,2022-09-06 15:22:11.2500,00:31,60,0,2022-09-06 15:22:14.6430,1662448934.643268,-0.004314054649819358,-0.007785751446846653,-0.005957491358507256,0.0145416259765625,-0.038665771484375,-1.0043487548828125,98.42330932617188,-69.7572021484375,-73.64395141601562,,,,,,,,,,
0,2022-09-06 15:22:11.2500,00:31,60,0,2022-09-06 15:22:14.6600,1662448934.660015,-0.0019803265865829217,-0.00949709876333157,-0.00538224856305014,0.0137481689453125,-0.037567138671875,-1.0035247802734375,98.32124328613281,-69.24005126953125,-74.17390441894531,,,,,,,,,,
0,2022-09-06 15:22:11.2500,00:31,60,0,2022-09-06 15:22:14.6770,1662448934.676556,-0.0015078818092028646,-0.010659568579151159,-0.0068073060623515405,0.014434814453125,-0.038116455078125,-1.0042572021484375,98.43431091308594,-69.62213134765625,-73.76417541503906,,,,,,,,,,
0,2022-09-06 15:22:11.2500,00:31,60,0,2022-09-06 15:22:14.6940,1662448934.6936421,-0.0015792545264169883,-0.010450244117470931,-0.005409412806168949,0.014190673828125,-0.0381011962890625,-1.0031890869140625,98.43431091308594,-69.62213134765625,-73.76417541503906,,,,,,,,,,
0,2022-09-06 15:22:11.2500,00:31,60,0,2022-09-06 15:22:14.7100,1662448934.709924,-0.0023976439293983383,-0.009959689844678335,-0.005314071639144112,0.0139312744140625,-0.038116455078125,-1.004913330078125,98.33012390136719,-69.37420654296875,-73.31170654296875,,,,,,,,,,
0,2022-09-06 15:22:11.2500,00:31,60,0,2022-09-06 15:22:14.7270,1662448934.72676,-0.0035683695445971712,-0.009989517248887223,-0.008228901452235838,0.014312744140625,-0.03778076171875,-1.00469970703125,98.36041259765625,-69.16474914550781,-74.10604858398438,,,,,,,,,,
0,2022-09-06 15:22:11.2500,00:31,60,0,2022-09-06 15:22:14.7440,1662448934.7435179,2.157160482964183e-05,-0.0072999908640162,-0.003663178079403992,0.014434814453125,-0.0369720458984375,-1.0040130615234375,98.36054992675781,-69.286376953125,-74.08456420898438,,,,,,,,,,
0,2022-09-06 15:22:11.2500,00:31,60,0,2022-09-06 15:22:14.7610,1662448934.760715,-0.0013725932258268393,-0.01094159733859055,-0.00500008494662377,0.014312744140625,-0.0375518798828125,-1.00408935546875,98.46109008789062,-69.24916076660156,-74.19538879394531,,,,,,,,,,
0,2022-09-06 15:22:11.2500,00:31,60,0,2022-09-06 15:22:14.7770,1662448934.776747,-0.00240510078045056,-0.01241938542747552,-0.008036621221532116,0.0143280029296875,-0.037750244140625,-1.0041046142578125,98.37570190429688,-69.04266357421875,-74.16934204101562,,,,,,,,,,
0,2022-09-06 15:22:11.2500,00:31,60,0,2022-09-06 15:22:14.7930,1662448934.793192,-0.0012399678035408934,-0.010900318341694321,-0.005754025851225202,0.0142974853515625,-0.0383453369140625,-1.0037078857421875,98.37570190429688,-69.04266357421875,-74.16934204101562,,,,,,,,,,
0,2022-09-06 15:22:11.2500,00:31,60,0,2022-09-06 15:22:14.8100,1662448934.8099852,-0.0032189628095787752,-0.008697351487980776,-0.005032575511922736,0.0142669677734375,-0.03814697265625,-1.0030059814453125,98.41337585449219,-69.34396362304688,-73.48081970214844,,,,,,,,,,
0,2022-09-06 15:22:11.2500,00:31,60,0,2022-09-06 15:22:14.8270,1662448934.826713,-0.0025244103972861098,-0.008535431293703958,-0.008506402837822094,0.0138092041015625,-0.0377655029296875,-1.0050201416015625,98.14051818847656,-68.99794006347656,-73.9375,,,,,,,,,,
0,2022-09-06 15:22:11.2500,00:31,60,0,2022-09-06 15:22:14.8430,1662448934.843049,-0.00044821001146033577,-0.0059265986898623365,-0.005651494149257152,0.0139923095703125,-0.0372161865234375,-1.004302978515625,98.28759765625,-69.09616088867188,-73.828857421875,,,,,,,,,,
0,2022-09-06 15:22:11.2500,00:31,60,0,2022-09-06 15:22:14.8590,1662448934.859313,-0.00018269285077943573,-0.011961854352199906,-0.007805192522804231,0.013946533203125,-0.0373382568359375,-1.00323486328125,98.22128295898438,-68.99546813964844,-73.70066833496094,,,,,,,,,,
0,2022-09-06 15:22:11.2500,00:31,60,0,2022-09-06 15:22:14.8760,1662448934.8755841,-0.0028823392477927597,-0.010644654877046715,-0.004902080618508854,0.014862060546875,-0.0369720458984375,-1.00408935546875,98.23860168457031,-69.18551635742188,-74.26048278808594,,,,,,,,,,
0,2022-09-06 15:22:11.2500,00:31,60,0,2022-09-06 15:22:14.8930,1662448934.893458,-0.0040970070209779,-0.010169014306358562,-0.005568936155464695,0.0143280029296875,-0.0384063720703125,-1.0044708251953125,98.07534790039062,-68.93815612792969,-73.83543395996094,,,,,,,,,,
0,2022-09-06 15:22:11.2500,00:31,60,0,2022-09-06 15:22:14.9100,1662448934.909958,-0.0011097392262360186,-0.010942662603026582,-0.007681621848224554,0.0138397216796875,-0.0377655029296875,-1.0043792724609375,98.07534790039062,-68.93815612792969,-73.83543395996094,,,,,,,,,,
0,2022-09-06 15:22:11.2500,00:31,60,0,2022-09-06 15:22:14.9270,1662448934.927022,0.002370213370170522,-0.010313357637440857,-0.0069638999344482,0.0140380859375,-0.0370330810546875,-1.00347900390625,98.15097045898438,-68.8521728515625,-73.83944702148438,,,,,,,,,,
0,2022-09-06 15:22:11.2500,00:31,60,0,2022-09-06 15:22:14.9440,1662448934.943696,-0.0011526161197862944,-0.009593771510901447,-0.005210208356631022,0.013580322265625,-0.0380706787109375,-1.0032806396484375,98.042724609375,-68.95651245117188,-73.47146606445312,,,,,,,,,,
0,2022-09-06 15:22:11.2500,00:31,60,0,2022-09-06 15:22:14.9600,1662448934.959916,-0.0022037658020405697,-0.00944356922542098,-0.00972692956540541,0.01446533203125,-0.037872314453125,-1.004302978515625,97.99310302734375,-68.74557495117188,-73.84922790527344,,,,,,,,,,
0,2022-09-06 15:22:11.2500,00:31,60,0,2022-09-06 15:22:14.9770,1662448934.976635,-0.0009952232993626112,-0.009716276921045092,-0.006834470305470349,0.0150604248046875,-0.0377960205078125,-1.003875732421875,98.04519653320312,-68.61134338378906,-74.39518737792969,,,,,,,,,,
0,2022-09-06 15:22:11.2500,00:31,60,0,2022-09-06 15:22:14.9940,1662448934.993731,-0.0034208304202067814,-0.01024384913298979,-0.003869306747776125,0.014190673828125,-0.0379791259765625,-1.0036773681640625,98.15388488769531,-68.9488525390625,-74.00839233398438,,,,,,,,,,
0,2022-09-06 15:22:11.2500,00:31,60,0,2022-09-06 15:22:15.0100,1662448935.009777,0.0007004113666908397,-0.00920734683673095,-0.007907191592554267,0.01458740234375,-0.0377044677734375,-1.00299072265625,98.15388488769531,-68.9488525390625,-74.00839233398438,,,,,,,,,,
0,2022-09-06 15:22:11.2500,00:31,60,0,2022-09-06 15:22:15.0270,1662448935.026761,-0.0024522387317449626,-0.01185239843139765,-0.008069111786831083,0.0150604248046875,-0.0380401611328125,-1.0049591064453125,98.06913757324219,-68.47148132324219,-73.5665283203125,,,,,,,,,,
0,2022-09-06 15:22:11.2500,00:31,60,0,2022-09-06 15:22:15.0430,1662448935.0431972,-0.0009038768739728935,-0.01143028739862009,-0.007474960547634406,0.0145416259765625,-0.03839111328125,-1.00384521484375,97.92544555664062,-68.72738647460938,-73.59747314453125,,,,,,,,,,
0,2022-09-06 15:22:11.2500,00:31,60,0,2022-09-06 15:22:15.0590,1662448935.058759,-0.0019070896566057425,-0.0071242222320709704,-0.0064539045856980256,0.013885498046875,-0.037078857421875,-1.0033416748046875,98.13813781738281,-68.78047180175781,-73.00990295410156,,,,,,,,,,
0,2022-09-06 15:22:11.2500,00:31,60,0,2022-09-06 15:22:15.0760,1662448935.07617,0.00015259913046154034,-0.008200938260790006,-0.007212372864152593,0.014495849609375,-0.0372772216796875,-1.0039520263671875,97.91375732421875,-68.44273376464844,-73.93222045898438,,,,,,,,,,
0,2022-09-06 15:22:11.2500,00:31,60,0,2022-09-06 15:22:15.0940,1662448935.093627,-0.000979244332822136,-0.009268599541802773,-0.008692291481909626,0.014556884765625,-0.03826904296875,-1.003936767578125,97.92974853515625,-68.39059448242188,-73.14898681640625,,,,,,,,,,
0,2022-09-06 15:22:11.2500,00:31,60,0,2022-09-06 15:22:15.1100,1662448935.110049,-0.0007262440292646082,-0.007481352134250596,-0.007075752700231528,0.0143890380859375,-0.038330078125,-1.004425048828125,97.92974853515625,-68.39059448242188,-73.14898681640625,,,,,,,,,,
0,2022-09-06 15:22:11.2500,00:31,60,0,2022-09-06 15:22:15.1270,1662448935.126886,0.013811952361477952,-0.06885709524843474,-0.005277852648319034,0.0140533447265625,-0.037353515625,-1.00421142578125,98.06675720214844,-68.53732299804688,-73.55227661132812,,,,,,,,,,
0,2022-09-06 15:22:11.2500,00:31,60,0,2022-09-06 15:22:15.1430,1662448935.143194,-0.011701929829808173,0.004720719348274458,-0.005593437237493424,0.02081298828125,-0.0354156494140625,-1.0407562255859375,97.88157653808594,-68.39877319335938,-73.35031127929688,,,,,,,,,,
0,2022-09-06 15:22:11.2500,00:31,60,0,2022-09-06 15:22:15.1600,1662448935.160033,0.013715279613908078,-0.035610192199885524,-0.009125854107374525,0.0057525634765625,-0.042266845703125,-0.9511871337890625,97.87939453125,-68.2681884765625,-73.16012573242188,,,,,,,,,,
0,2022-09-06 15:22:11.2500,00:31,60,0,2022-09-06 15:22:15.1760,1662448935.175714,-0.020247481135654433,0.0183071019654227,-0.00807869916675537,0.018341064453125,-0.03546142578125,-1.036865234375,97.99876403808594,-68.55548095703125,-73.37106323242188,,,,,,,,,,
0,2022-09-06 15:22:11.2500,00:31,60,0,2022-09-06 15:22:15.1930,1662448935.1933432,0.020050673531097577,-0.04291897149549899,-0.00845047645493043,0.0090179443359375,-0.0399322509765625,-0.979461669921875,97.77467346191406,-68.78092956542969,-72.64437866210938,,,,,,,,,,
0,2022-09-06 15:22:11.2500,00:31,60,0,2022-09-06 15:22:15.2100,1662448935.210237,-0.015412778492724584,0.009157812040455477,-0.007385212018898735,0.015960693359375,-0.0379791259765625,-1.0157318115234375,97.77467346191406,-68.78092956542969,-72.64437866210938,,,,,,,,,,
0,2022-09-06 15:22:11.2500,00:31,60,0,2022-09-06 15:22:15.2270,1662448935.226735,0.0009563411474474544,-0.012905944958632997,-0.006212888507045855,0.013916015625,-0.037750244140625,-1.0041046142578125,97.86570739746094,-68.91876220703125,-72.95960998535156,,,,,,,,,,
0,2022-09-06 15:22:11.2500,00:31,60,0,2022-09-06 15:22:15.2430,1662448935.242686,-0.003310575551077501,-0.006115416811148955,-0.008458998570418685,0.0122222900390625,-0.0378265380859375,-0.99554443359375,97.90187072753906,-68.43086242675781,-72.56401062011719,,,,,,,,,,
0,2022-09-06 15:22:11.2500,00:31,60,0,2022-09-06 15:22:15.2600,1662448935.260206,-0.006373210804668625,-0.005874400732496784,-0.00597107348006666,0.014190673828125,-0.037872314453125,-1.0120391845703125,97.81986999511719,-68.44111633300781,-73.17784118652344,,,,,,,,,,
0,2022-09-06 15:22:11.2500,00:31,60,0,2022-09-06 15:22:15.2770,1662448935.276638,-0.002659698980662135,-0.0067833376125408275,-0.007900800005938076,0.0122528076171875,-0.039154052734375,-0.9990997314453125,97.86412048339844,-68.68936157226562,-73.39057922363281,,,,,,,,,,
0,2022-09-06 15:22:11.2500,00:31,60,0,2022-09-06 15:22:15.2930,1662448935.293291,-0.0040370858964511175,-0.0027923244029480813,-0.0066288742693162315,0.0135498046875,-0.0377349853515625,-1.00616455078125,97.83688354492188,-68.69610595703125,-72.70957946777344,,,,,,,,,,
0,2022-09-06 15:22:11.2500,00:31,60,0,2022-09-06 15:22:15.3100,1662448935.309838,-0.0053982275295906155,-0.0036037895870952253,-0.008973521293021994,0.01348876953125,-0.038177490234375,-1.0006866455078125,97.83688354492188,-68.69610595703125,-72.70957946777344,,,,,,,,,,
0,2022-09-06 15:22:11.2500,00:31,60,0,2022-09-06 15:22:15.3270,1662448935.326837,-0.0016753946417688488,-0.0089032138402439,-0.0048413605456550475,0.0142822265625,-0.038787841796875,-1.0043792724609375,97.64759826660156,-68.44512939453125,-72.94236755371094,,,,,,,,,,
0,2022-09-06 15:22:11.2500,00:31,60,0,2022-09-06 15:22:15.3430,1662448935.3434749,0.002055694045432164,-0.016243684752829307,-0.004368649452165982,0.016937255859375,-0.0408782958984375,-1.005767822265625,97.72468566894531,-68.63002014160156,-72.72236633300781,,,,,,,,,,
0,2022-09-06 15:22:11.2500,00:31,60,0,2022-09-06 15:22:15.3600,1662448935.360033,-0.0037305560549829968,-0.005241633657493957,-0.004584099184353393,0.01202392578125,-0.037353515625,-1.0009918212890625,97.6676025390625,-68.51158142089844,-73.54734802246094,,,,,,,,,,
0,2022-09-06 15:22:11.2500,00:31,60,0,2022-09-06 15:22:15.3760,1662448935.3758268,-0.002713228518572728,-0.004570250746684981,-0.004477306424641215,0.0131683349609375,-0.036651611328125,-1.00567626953125,97.69818115234375,-68.67764282226562,-73.11151123046875,,,,,,,,,,
0,2022-09-06 15:22:11.2500,00:31,60,0,2022-09-06 15:22:15.3920,1662448935.392322,-0.005475459201202914,0.000992560138272532,-0.008030762267133942,0.012664794921875,-0.0383758544921875,-0.9993743896484375,97.61363220214844,-68.53826904296875,-73.18603515625,,,,,,,,,,
0,2022-09-06 15:22:11.2500,00:31,60,0,2022-09-06 15:22:15.4100,1662448935.410234,-0.006347111825985848,0.0032972597456271046,-0.005743639522973893,0.0148773193359375,-0.03765869140625,-1.0057220458984375,97.61363220214844,-68.53826904296875,-73.18603515625,,,,,,,,,,
0,2022-09-06 15:22:11.2500,00:31,60,0,2022-09-06 15:22:15.4270,1662448935.4272451,-0.0031683627488672695,-0.00430606516654912,-0.006059490428257291,0.01300048828125,-0.0374755859375,-1.0007476806640625,97.6064453125,-68.04847717285156,-73.18006896972656,,,,,,,,,,
0,2022-09-06 15:22:11.2500,00:31,60,0,2022-09-06 15:22:15.4430,1662448935.443448,-0.0018586201247663004,-0.00433429467410396,-0.006652576403017937,0.01580810546875,-0.037322998046875,-1.010833740234375,97.56394958496094,-68.19862365722656,-73.63201904296875,,,,,,,,,,
0,2022-09-06 15:22:11.2500,00:31,60,0,2022-09-06 15:22:15.4600,1662448935.459872,-0.0054711981434587866,-0.001422926970429337,-0.007272560304788384,0.0126190185546875,-0.0376739501953125,-0.99755859375,97.52877807617188,-67.91278076171875,-72.25657653808594,,,,,,,,,,
0,2022-09-06 15:22:11.2500,00:31,60,0,2022-09-06 15:22:15.4750,1662448935.475192,-0.0021949773704433083,-0.005501025547667675,-0.00831092681381028,0.013916015625,-0.0368499755859375,-1.00848388671875,97.33840942382812,-67.94509887695312,-73.19975280761719,,,,,,,,,,
0,2022-09-06 15:22:11.2500,00:31,60,0,2022-09-06 15:22:15.4930,1662448935.492741,-0.005535912957947712,-0.00864808300781431,-0.007504787951843293,0.0141754150390625,-0.0375213623046875,-1.00390625,97.46971130371094,-67.68507385253906,-72.90940856933594,,,,,,,,,,
0,2022-09-06 15:22:11.2500,00:31,60,0,2022-09-06 15:22:15.5100,1662448935.510108,-0.006696252244895237,0.0008431568011190868,-0.009656622112627317,0.014984130859375,-0.0377349853515625,-1.0040130615234375,97.46971130371094,-67.68507385253906,-72.90940856933594,,,,,,,,,,
0,2022-09-06 15:22:11.2500,00:31,60,0,2022-09-06 15:22:15.5270,1662448935.5268312,-0.01717818797933811,0.026684075174266943,-0.009786051741605168,0.0134429931640625,-0.0383453369140625,-1.00115966796875,97.44935607910156,-67.80274963378906,-72.91154479980469,,,,,,,,,,
0,2022-09-06 15:22:11.2500,00:31,60,0,2022-09-06 15:22:15.5430,1662448935.543426,-0.03931464927618575,0.06538113739366332,-0.009549563036806132,0.013519287109375,-0.039276123046875,-0.99462890625,97.32315063476562,-67.55830383300781,-72.87773132324219,,,,,,,,,,
0,2022-09-06 15:22:11.2500,00:31,60,0,2022-09-06 15:22:15.5600,1662448935.5602531,-0.013119264161948344,0.018453043193159043,-0.006736199661246425,0.01678466796875,-0.03704833984375,-1.0092315673828125,97.33158874511719,-67.45075988769531,-73.15400695800781,,,,,,,,,,
0,2022-09-06 15:22:11.2500,00:31,60,0,2022-09-06 15:22:15.5770,1662448935.577094,-0.004119643890243573,0.006505303594736555,-0.00498597019284635,0.0200042724609375,-0.0379486083984375,-1.015655517578125,97.42677307128906,-67.41796875,-72.649169921875,,,,,,,,,,
0,2022-09-06 15:22:11.2500,00:31,60,0,2022-09-06 15:22:15.5930,1662448935.593447,-0.012164787227263944,0.02943219110311971,-0.005030711299159681,0.014373779296875,-0.0361785888671875,-0.9967498779296875,97.09809875488281,-67.06857299804688,-72.865234375,,,,,,,,,,
0,2022-09-06 15:22:11.2500,00:31,60,0,2022-09-06 15:22:15.6100,1662448935.6100678,-0.04232721710128338,0.11069162754805345,-0.011618572887688692,0.014129638671875,-0.036376953125,-1.003753662109375,97.09809875488281,-67.06857299804688,-72.865234375,,,,,,,,,,
0,2022-09-06 15:22:11.2500,00:31,60,0,2022-09-06 15:22:15.6270,1662448935.6265821,-0.06656597776263956,0.208009659050056,-0.012020710212290658,0.0151824951171875,-0.038330078125,-0.98675537109375,97.47451782226562,-67.570068359375,-72.428466796875,,,,,,,,,,
0,2022-09-06 15:22:11.2500,00:31,60,0,2022-09-06 15:22:15.6420,1662448935.6424909,-0.05625981066014192,0.17898253474873735,-0.013704360653438752,0.02362060546875,-0.03973388671875,-1.0041961669921875,97.46830749511719,-67.37203979492188,-72.57701110839844,,,,,,,,,,
0,2022-09-06 15:22:11.2500,00:31,60,0,2022-09-06 15:22:15.6590,1662448935.658576,-0.011813249963373485,0.12304549921271303,-0.014565893266079386,0.0314788818359375,-0.0482177734375,-1.014862060546875,97.45310974121094,-67.46603393554688,-72.77037048339844,,,,,,,,,,
0,2022-09-06 15:22:11.2500,00:31,60,0,2022-09-06 15:22:15.6770,1662448935.67666,0.0006418218227090964,0.02526327873270967,-0.033318275765763336,0.0507354736328125,-0.0089569091796875,-1.0077056884765625,97.56027221679688,-67.51396179199219,-73.02354431152344,,,,,,,,,,
0,2022-09-06 15:22:11.2500,00:31,60,0,2022-09-06 15:22:15.6940,1662448935.693771,0.003692472851394864,-0.00672022069470595,-0.04414588980969849,0.0293121337890625,0.012664794921875,-1.00537109375,97.53019714355469,-67.55195617675781,-72.7330322265625,,,,,,,,,,
0,2022-09-06 15:22:11.2500,00:31,60,0,2022-09-06 15:22:15.7100,1662448935.7098389,0.005501558179885691,-0.010879545685191705,-0.09338241204308345,0.027496337890625,-0.009033203125,-1.0079498291015625,97.53019714355469,-67.55195617675781,-72.7330322265625,,,,,,,,,,
0,2022-09-06 15:22:11.2500,00:31,60,0,2022-09-06 15:22:15.7270,1662448935.7265182,0.010653975940861992,-0.04237781716199489,-0.08765768096384911,0.028045654296875,-0.0277557373046875,-1.0028533935546875,97.57061767578125,-67.08056640625,-72.74140930175781,,,,,,,,,,
0,2022-09-06 15:22:11.2500,00:31,60,0,2022-09-06 15:22:15.7440,1662448935.743603,0.03681420732871035,-0.10105710967247379,-0.0739645055869887,0.061859130859375,-0.0376434326171875,-1.0022430419921875,97.41636657714844,-66.97703552246094,-72.788818359375,,,,,,,,,,
0,2022-09-06 15:22:11.2500,00:31,60,0,2022-09-06 15:22:15.7600,1662448935.760253,0.043874513694619414,-0.16966706357174918,-0.08845609665865488,0.0518798828125,-0.034759521484375,-1.006072998046875,97.4202880859375,-66.82498168945312,-72.41468811035156,,,,,,,,,,
0,2022-09-06 15:22:11.2500,00:31,60,0,2022-09-06 15:22:15.7760,1662448935.776466,0.09241754878014774,-0.2944729122650046,-0.12163109435777195,0.0448455810546875,-0.0230255126953125,-1.023529052734375,97.49276733398438,-67.18638610839844,-73.17530822753906,,,,,,,,,,
0,2022-09-06 15:22:11.2500,00:31,60,0,2022-09-06 15:22:15.7920,1662448935.792348,0.16046530937330739,-0.47151480152740116,-0.1466618791273177,0.0079498291015625,0.0005645751953125,-1.017852783203125,97.26240539550781,-66.92280578613281,-73.32000732421875,,,,,,,,,,
0,2022-09-06 15:22:11.2500,00:31,60,0,2022-09-06 15:22:15.8100,1662448935.810123,0.025007615268062063,-0.024118652096193613,-0.18111998783963495,-0.0375518798828125,0.006622314453125,-1.02691650390625,97.22421264648438,-67.05830383300781,-72.89250183105469,,,,,,,,,,
0,2022-09-06 15:22:11.2500,00:31,60,0,2022-09-06 15:22:15.8270,1662448935.8267279,-0.02533917882377693,0.014305702427578644,-0.2578720241396096,-0.006256103515625,0.0023651123046875,-0.884613037109375,97.22421264648438,-67.05830383300781,-72.89250183105469,,,,,,,,,,
0,2022-09-06 15:22:11.2500,00:31,60,0,2022-09-06 15:22:15.8430,1662448935.8434649,0.0015571502893693306,-0.00538997173021137,-0.26788044983223636,0.0301055908203125,-0.020721435546875,-1.0609130859375,97.37921142578125,-66.79971313476562,-73.28395080566406,,,,,,,,,,
0,2022-09-06 15:22:11.2500,00:31,60,0,2022-09-06 15:22:15.8600,1662448935.859993,-0.07978324625270282,0.10495171645060568,-0.04265212275427305,-0.0078582763671875,-0.0738372802734375,-0.960845947265625,97.30133056640625,-66.50108337402344,-72.98451232910156,,,,,,,,,,
0,2022-09-06 15:22:11.2500,00:31,60,0,2022-09-06 15:22:15.8770,1662448935.8766,0.007815312534946533,-0.02144190888455497,-0.00654312048221568,-0.038421630859375,-0.1451416015625,-1.02581787109375,97.45231628417969,-67.03147888183594,-73.38825988769531,,,,,,,,,,
0,2022-09-06 15:22:11.2500,00:31,60,0,2022-09-06 15:22:15.8930,1662448935.893125,-0.012008459671276292,0.0017371799790586871,-0.0066898606582790465,0.0235748291015625,-0.029022216796875,-1.0267333984375,97.38514709472656,-67.024658203125,-73.20574951171875,,,,,,,,,,
0,2022-09-06 15:22:11.2500,00:31,60,0,2022-09-06 15:22:15.9100,1662448935.909886,0.001632784064327581,-0.015306518365230422,-0.0047199203999474335,0.0131988525390625,-0.038787841796875,-0.9872283935546875,97.45115661621094,-67.12867736816406,-73.4656982421875,,,,,,,,,,
0,2022-09-06 15:22:11.2500,00:31,60,0,2022-09-06 15:22:15.9270,1662448935.926752,-0.003089799496709932,-0.0061449778992488345,-0.006387059242337037,0.0181732177734375,-0.03619384765625,-1.0164031982421875,97.45115661621094,-67.12867736816406,-73.4656982421875,,,,,,,,,,
0,2022-09-06 15:22:11.2500,00:31,60,0,2022-09-06 15:22:15.9430,1662448935.943321,-5.299690569257684e-05,-0.01202044389618165,-0.006143646318703794,0.013946533203125,-0.0383453369140625,-0.995086669921875,97.53021240234375,-67.23982238769531,-73.20269775390625,,,,,,,,,,
0,2022-09-06 15:22:11.2500,00:31,60,0,2022-09-06 15:22:15.9600,1662448935.959847,-0.0044069989718631235,-0.0049204564300304,-0.005575594058189893,0.0177459716796875,-0.035491943359375,-1.00933837890625,97.58409118652344,-67.31103515625,-73.5128173828125,,,,,,,,,,
0,2022-09-06 15:22:11.2500,00:31,60,0,2022-09-06 15:22:15.9770,1662448935.9767308,0.002136920458679581,-0.0193356147784113,-0.005079447147108131,0.0142059326171875,-0.037994384765625,-0.9994659423828125,97.67347717285156,-67.72038269042969,-73.73442077636719,,,,,,,,,,
0,2022-09-06 15:22:11.2500,00:31,60,0,2022-09-06 15:22:15.9940,1662448935.993538,-0.0029702235637653744,-0.004370779981038046,-0.007058708469255021,0.0160675048828125,-0.0366973876953125,-1.007965087890625,97.66134643554688,-67.58731079101562,-73.60389709472656,,,,,,,,,,
0,2022-09-06 15:22:11.2500,00:31,60,0,2022-09-06 15:22:16.0100,1662448936.009872,0.0014935007393164369,-0.011210310292579545,-0.007073089539141449,0.01568603515625,-0.03741455078125,-0.999176025390625,97.74726867675781,-67.75965881347656,-73.31256103515625,,,,,,,,,,
0,2022-09-06 15:22:11.2500,00:31,60,0,2022-09-06 15:22:16.0270,1662448936.0266109,0.0018575548603302686,-0.01116610181848423,-0.007158044377914977,0.0167694091796875,-0.03656005859375,-1.0079803466796875,97.74726867675781,-67.75965881347656,-73.31256103515625,,,,,,,,,,
0,2022-09-06 15:22:11.2500,00:31,60,0,2022-09-06 15:22:16.0430,1662448936.043445,-0.0001062601274941616,-0.017140371091858984,-0.006845389265939674,0.0149688720703125,-0.037628173828125,-1.002655029296875,97.7230224609375,-68.02095031738281,-73.60414123535156,,,,,,,,,,
0,2022-09-06 15:22:11.2500,00:31,60,0,2022-09-06 15:22:16.0600,1662448936.0598211,-0.0021686120756515236,-0.0068762819345845935,-0.007296262438490089,0.0153656005859375,-0.038421630859375,-1.0047454833984375,97.70223999023438,-67.90264892578125,-73.22932434082031,,,,,,,,,,
0,2022-09-06 15:22:11.2500,00:31,60,0,2022-09-06 15:22:16.0760,1662448936.075552,0.0015510250188621483,-0.007159109642351008,-0.006833937673252333,0.0150604248046875,-0.03729248046875,-1.001953125,97.95455932617188,-68.23731994628906,-73.47015380859375,,,,,,,,,,
0,2022-09-06 15:22:11.2500,00:31,60,0,2022-09-06 15:22:16.0930,1662448936.09322,-0.0026735474183305474,-0.007559915386407934,-0.005112204028516106,0.0149383544921875,-0.0372314453125,-1.003936767578125,98.12568664550781,-68.5374755859375,-73.29400634765625,,,,,,,,,,
0,2022-09-06 15:22:11.2500,00:31,60,0,2022-09-06 15:22:16.1100,1662448936.1098552,-0.0014045511589077903,-0.012164787227263944,-0.007216367605787712,0.015869140625,-0.0376739501953125,-1.0039520263671875,97.96977233886719,-68.42730712890625,-73.67277526855469,,,,,,,,,,
0,2022-09-06 15:22:11.2500,00:31,60,0,2022-09-06 15:22:16.1270,1662448936.126584,0.011603925501693257,-0.03738758591140441,-0.00261415892602178,0.01544189453125,-0.0376434326171875,-1.0056304931640625,97.96977233886719,-68.42730712890625,-73.67277526855469,,,,,,,,,,
0,2022-09-06 15:22:11.2500,00:31,60,0,2022-09-06 15:22:16.1430,1662448936.143196,-0.0031260184875350097,-0.009089901432658455,-0.007000651557491294,0.0174713134765625,-0.0366363525390625,-1.0156402587890625,97.76875305175781,-68.54254150390625,-73.76914978027344,,,,,,,,,,
0,2022-09-06 15:22:11.2500,00:31,60,0,2022-09-06 15:22:16.1600,1662448936.15991,0.0006058691479930267,-0.014595454354179265,-0.006086654671376099,0.0123138427734375,-0.039398193359375,-0.9859466552734375,97.9334716796875,-68.36959838867188,-73.46617126464844,,,,,,,,,,
0,2022-09-06 15:22:11.2500,00:31,60,0,2022-09-06 15:22:16.1770,1662448936.1765308,-0.006713296475871744,-0.007334079325969214,-0.006204100075448593,0.01751708984375,-0.0364837646484375,-1.018585205078125,98.01387023925781,-68.76220703125,-73.77119445800781,,,,,,,,,,
0,2022-09-06 15:22:11.2500,00:31,60,0,2022-09-06 15:22:16.1930,1662448936.193279,-0.0012298477913985921,-0.013164005268261674,-0.005066663973875751,0.0129241943359375,-0.0385589599609375,-0.99285888671875,97.868896484375,-68.70538330078125,-73.76046752929688,,,,,,,,,,
0,2022-09-06 15:22:11.2500,00:31,60,0,2022-09-06 15:22:16.2100,1662448936.20995,-0.0021342572975895013,-0.007048322141003711,-0.00583631752890865,0.01654052734375,-0.0368499755859375,-1.0103302001953125,97.80859375,-68.70448303222656,-73.42376708984375,,,,,,,,,,
0,2022-09-06 15:22:11.2500,00:31,60,0,2022-09-06 15:22:16.2270,1662448936.22676,-0.0021217404404661293,-0.011767177276515115,-0.006643787971420676,0.0146636962890625,-0.038299560546875,-1.001800537109375,97.80859375,-68.70448303222656,-73.42376708984375,,,,,,,,,,
0,2022-09-06 15:22:11.2500,00:31,60,0,2022-09-06 15:22:16.2430,1662448936.2428942,-0.003243730207716512,-0.0063569655220191415,-0.006804376585152453,0.01519775390625,-0.037078857421875,-1.0045928955078125,97.75216674804688,-68.42459106445312,-73.46771240234375,,,,,,,,,,
0,2022-09-06 15:22:11.2500,00:31,60,0,2022-09-06 15:22:16.2590,1662448936.258813,-0.0013638047942295779,-0.013170130538768856,-0.004591556035405614,0.014373779296875,-0.03802490234375,-1.0025482177734375,97.72764587402344,-68.36215209960938,-73.71841430664062,,,,,,,,,,
0,2022-09-06 15:22:11.2500,00:31,60,0,2022-09-06 15:22:16.2750,1662448936.275394,-0.00823396145830699,-0.006747651253933766,-0.0071319453992322,0.0154571533203125,-0.0378875732421875,-1.00408935546875,97.9495849609375,-68.65194702148438,-73.78677368164062,,,,,,,,,,
0,2022-09-06 15:22:11.2500,00:31,60,0,2022-09-06 15:22:16.2920,1662448936.2921948,-0.005351355894405221,-0.0024277376497162336,-0.006733270184047338,0.014312744140625,-0.0381927490234375,-1.0036163330078125,97.85426330566406,-68.57893371582031,-73.68473815917969,,,,,,,,,,
0,2022-09-06 15:22:11.2500,00:31,60,0,2022-09-06 15:22:16.3090,1662448936.3087301,-0.0032703618186173044,-0.009372729140424871,-0.00564776572373104,0.0149993896484375,-0.0373382568359375,-1.0048675537109375,97.91366577148438,-68.796875,-73.15093994140625,,,,,,,,,,
0,2022-09-06 15:22:11.2500,00:31,60,0,2022-09-06 15:22:16.3260,1662448936.3256168,-0.004327636771378762,-0.005098355590847693,-0.004044010115285324,0.015655517578125,-0.0384368896484375,-1.00360107421875,97.91366577148438,-68.796875,-73.15093994140625,,,,,,,,,,
0,2022-09-06 15:22:11.2500,00:31,60,0,2022-09-06 15:22:16.3420,1662448936.3417401,-0.005630455176645526,-0.010814298238484763,-0.004999285998296746,0.015838623046875,-0.03759765625,-1.005401611328125,97.84400939941406,-68.84445190429688,-73.34004211425781,,,,,,,,,,
0,2022-09-06 15:22:11.2500,00:31,60,0,2022-09-06 15:22:16.3590,1662448936.35904,-0.005326322180158476,-0.007748200875476535,-0.0067218185913599975,0.01531982421875,-0.03802490234375,-1.0040130615234375,97.84347534179688,-68.7161865234375,-74.26947021484375,,,,,,,,,,
0,2022-09-06 15:22:11.2500,00:31,60,0,2022-09-06 15:22:16.3760,1662448936.375547,-0.004158792358267738,-0.0043659862910759035,-0.00396225106981989,0.015625,-0.0373687744140625,-1.002960205078125,97.82406616210938,-68.79180908203125,-73.78034973144531,,,,,,,,,,
0,2022-09-06 15:22:11.2500,00:31,60,0,2022-09-06 15:22:16.3920,1662448936.3920112,-0.004924983803883535,-0.002813896007777723,-0.005359878009893475,0.0153045654296875,-0.0362701416015625,-1.0046539306640625,97.70555114746094,-68.708251953125,-73.53276062011719,,,,,,,,,,
0,2022-09-06 15:22:11.2500,00:31,60,0,2022-09-06 15:22:16.4090,1662448936.409089,-0.01321700217395425,0.01070164652437441,-0.0065484468043958384,0.0145416259765625,-0.0377960205078125,-0.99871826171875,97.82911682128906,-68.39076232910156,-73.28875732421875,,,,,,,,,,
0,2022-09-06 15:22:11.2500,00:31,60,0,2022-09-06 15:22:16.4270,1662448936.426585,-0.003866643586686046,-0.004043477483067308,-0.004996622837206667,0.01776123046875,-0.0359344482421875,-1.0135955810546875,97.82911682128906,-68.39076232910156,-73.28875732421875,,,,,,,,,,
0,2022-09-06 15:22:11.2500,00:31,60,0,2022-09-06 15:22:16.4420,1662448936.442056,0.0009741843267509853,-0.014128602215088375,-0.004117247045262502,0.0158538818359375,-0.03778076171875,-0.9978485107421875,97.99299621582031,-68.89755249023438,-73.5936279296875,,,,,,,,,,
0,2022-09-06 15:22:11.2500,00:31,60,0,2022-09-06 15:22:16.4580,1662448936.458384,-0.0007909588437535338,-0.013506221468336856,-0.004689294047411523,0.016845703125,-0.0372314453125,-1.0084075927734375,97.96701049804688,-68.59640502929688,-72.7227783203125,,,,,,,,,,
0,2022-09-06 15:22:11.2500,00:31,60,0,2022-09-06 15:22:16.4750,1662448936.474916,0.03423067475522448,-0.06880329939441514,-0.0035249600188288796,0.0173492431640625,-0.0363311767578125,-1.01177978515625,97.80828857421875,-68.69613647460938,-73.500244140625,,,,,,,,,,
0,2022-09-06 15:22:11.2500,00:31,60,0,2022-09-06 15:22:16.4930,1662448936.4933128,0.006367884482488467,-0.02690351964808947,-0.0027534422510329245,0.0152740478515625,-0.0376739501953125,-1.001922607421875,97.84504699707031,-68.35981750488281,-73.61958312988281,,,,,,,,,,
0,2022-09-06 15:22:11.2500,00:31,60,0,2022-09-06 15:22:16.5100,1662448936.509903,0.012576778247899203,-0.03852448938075924,-0.006005960890346698,0.01470947265625,-0.0380401611328125,-1.0004730224609375,97.68638610839844,-68.76618957519531,-73.53411865234375,,,,,,,,,,
0,2022-09-06 15:22:11.2500,00:31,60,0,2022-09-06 15:22:16.5270,1662448936.526803,0.0022322616257044177,-0.018221880810540162,-0.00568504997899215,0.0147247314453125,-0.0381011962890625,-1.0049896240234375,97.68638610839844,-68.76618957519531,-73.53411865234375,,,,,,,,,,
0,2022-09-06 15:22:11.2500,00:31,60,0,2022-09-06 15:22:16.5430,1662448936.542758,-0.006868825083532371,-0.002136654142570573,-0.007001450505818317,0.013580322265625,-0.0379180908203125,-0.9979248046875,97.81982421875,-68.48770141601562,-73.33364868164062,,,,,,,,,,
0,2022-09-06 15:22:11.2500,00:31,60,0,2022-09-06 15:22:16.5590,1662448936.558721,-0.010997257405373207,-0.0008242483573795243,-0.005799565905865557,0.014801025390625,-0.038665771484375,-1.003570556640625,97.83103942871094,-68.42572021484375,-73.27650451660156,,,,,,,,,,
0,2022-09-06 15:22:11.2500,00:31,60,0,2022-09-06 15:22:16.5750,1662448936.575429,-0.025987125916993207,0.032698558180101894,-0.009066731931174767,0.0156707763671875,-0.03863525390625,-1.0120391845703125,97.7845458984375,-68.52534484863281,-73.6591796875,,,,,,,,,,
0,2022-09-06 15:22:11.2500,00:31,60,0,2022-09-06 15:22:16.5930,1662448936.5931978,-0.025556492768727394,0.033819748999025255,-0.004700213007880848,0.0119781494140625,-0.04022216796875,-0.989471435546875,97.71319580078125,-68.34080505371094,-73.49496459960938,,,,,,,,,,
0,2022-09-06 15:22:11.2500,00:31,60,0,2022-09-06 15:22:16.6100,1662448936.609933,0.00621741588089899,-0.0161123909110884,-0.005887450221838172,0.0184478759765625,-0.034454345703125,-1.019927978515625,97.7755126953125,-68.26161193847656,-73.38558959960938,,,,,,,,,,
0,2022-09-06 15:22:11.2500,00:31,60,0,2022-09-06 15:22:16.6270,1662448936.626772,-0.005181179900749158,-0.007496265836355039,-0.006985205223168834,0.0153045654296875,-0.0372772216796875,-1.0043182373046875,97.7755126953125,-68.26161193847656,-73.38558959960938,,,,,,,,,,
0,2022-09-06 15:22:11.2500,00:31,60,0,2022-09-06 15:22:16.6430,1662448936.643383,0.0030077741351354917,-0.017439710398383892,-0.008782040010645295,0.0153350830078125,-0.0369873046875,-1.0030059814453125,97.74276733398438,-68.355712890625,-73.04115295410156,,,,,,,,,,
0,2022-09-06 15:22:11.2500,00:31,60,0,2022-09-06 15:22:16.6580,1662448936.6577759,-0.011852664747506658,0.00788748420048768,-0.007251255016067749,0.0149993896484375,-0.037872314453125,-1.0086669921875,97.752197265625,-68.26451110839844,-73.49124145507812,,,,,,,,,,
0,2022-09-06 15:22:11.2500,00:31,60,0,2022-09-06 15:22:16.6760,1662448936.675663,0.0023465112364688167,-0.01760642428262285,-0.008203601421880086,0.016693115234375,-0.0372467041015625,-1.003265380859375,97.70417785644531,-68.5152587890625,-73.07302856445312,,,,,,,,,,
0,2022-09-06 15:22:11.2500,00:31,60,0,2022-09-06 15:22:16.6910,1662448936.691231,-0.0037028591796461727,-0.00704858845711272,-0.010035323619636586,0.0139312744140625,-0.0361175537109375,-1.0062713623046875,97.5943603515625,-68.16949462890625,-73.68019104003906,,,,,,,,,,
0,2022-09-06 15:22:11.2500,00:31,60,0,2022-09-06 15:22:16.7080,1662448936.707697,-0.001156877177530421,-0.006596916336235281,-0.018061025880699376,0.0177764892578125,-0.0399322509765625,-1.0034332275390625,97.69839477539062,-68.01502990722656,-72.85612487792969,,,,,,,,,,
0,2022-09-06 15:22:11.2500,00:31,60,0,2022-09-06 15:22:16.7240,1662448936.724204,-0.031168039501633358,0.05087090419436659,-0.021481589984797152,0.0099945068359375,-0.0380401611328125,-0.995697021484375,97.69839477539062,-68.01502990722656,-72.85612487792969,,,,,,,,,,
0,2022-09-06 15:22:11.2500,00:31,60,0,2022-09-06 15:22:16.7410,1662448936.741098,-0.03655508175464564,0.05620761270277637,-0.061873754238028954,0.0115966796875,-0.0396270751953125,-0.997772216796875,97.50221252441406,-67.92781066894531,-72.25970458984375,,,,,,,,,,
0,2022-09-06 15:22:11.2500,00:31,60,0,2022-09-06 15:22:16.7580,1662448936.757874,-0.028528314229146815,0.047775245743258477,-0.1090527182132187,-0.003509521484375,-0.0425262451171875,-1.0079498291015625,97.65385437011719,-68.26983642578125,-72.64895629882812,,,,,,,,,,
0,2022-09-06 15:22:11.2500,00:31,60,0,2022-09-06 15:22:16.7740,1662448936.774479,-0.05476790781747953,0.09930554862352868,-0.22050068351085467,0.0366058349609375,-0.0970611572265625,-1.0005340576171875,97.521728515625,-67.9010009765625,-72.33132934570312,,,,,,,,,,
0,2022-09-06 15:22:11.2500,00:31,60,0,2022-09-06 15:22:16.7910,1662448936.791102,-0.09437364060081094,0.173022912861358,-0.4460512530807176,0.004913330078125,-0.0567169189453125,-0.9792938232421875,97.78251647949219,-67.4288330078125,-72.31404113769531,,,,,,,,,,
0,2022-09-06 15:22:11.2500,00:31,60,0,2022-09-06 15:22:16.8080,1662448936.807657,-0.1139769030687752,0.20173977889568245,-0.7152465055431261,-0.03216552734375,-0.0081787109375,-1.0050506591796875,97.79486083984375,-67.18734741210938,-71.40745544433594,,,,,,,,,,
0,2022-09-06 15:22:11.2500,00:31,60,0,2022-09-06 15:22:16.8240,1662448936.824058,-0.245954111945396,0.3919592555479001,-0.5904659568802264,-0.0973968505859375,0.0117950439453125,-0.9592742919921875,97.79486083984375,-67.18734741210938,-71.40745544433594,,,,,,,,,,
0,2022-09-06 15:22:11.2500,00:31,60,0,2022-09-06 15:22:16.8410,1662448936.841236,-0.2918273280381199,0.5663720721821706,-0.26058551897429133,0.02838134765625,0.034210205078125,-0.9729461669921875,98.28065490722656,-66.89993286132812,-70.67774963378906,,,,,,,,,,
0,2022-09-06 15:22:11.2500,00:31,60,0,2022-09-06 15:22:16.8590,1662448936.85877,-0.1712772107668111,0.4852141021747688,-0.020435500308614025,0.163787841796875,0.1018524169921875,-1.042449951171875,98.17514038085938,-66.06533813476562,-71.35012817382812,,,,,,,,,,
0,2022-09-06 15:22:11.2500,00:31,60,0,2022-09-06 15:22:16.8740,1662448936.874459,-0.34972258592367944,0.9737414430617052,0.09869701631444558,0.1251373291015625,0.0075531005859375,-0.9940338134765625,98.74217224121094,-66.2220458984375,-71.09611511230469,,,,,,,,,,
0,2022-09-06 15:22:11.2500,00:31,60,0,2022-09-06 15:22:16.8910,1662448936.891378,-0.2855161688868501,1.022637879623887,-0.010192183807842252,0.1598358154296875,-0.08056640625,-0.94091796875,99.10685729980469,-66.09431457519531,-70.58183288574219,,,,,,,,,,
0,2022-09-06 15:22:11.2500,00:31,60,0,2022-09-06 15:22:16.9080,1662448936.907857,-0.15323402806541525,1.7535642787170727,-0.4138733428937262,0.06256103515625,-0.0848388671875,-1.148956298828125,99.89344787597656,-65.55209350585938,-69.29696655273438,,,,,,,,,,
0,2022-09-06 15:22:11.2500,00:31,60,0,2022-09-06 15:22:16.9240,1662448936.92437,-0.0848341975761471,2.6313142108157437,-0.8114710431015421,0.1762847900390625,-0.0688629150390625,-0.997039794921875,99.89344787597656,-65.55209350585938,-69.29696655273438,,,,,,,,,,
0,2022-09-06 15:22:11.2500,00:31,60,0,2022-09-06 15:22:16.9410,1662448936.9409509,-0.06751033468518167,4.006367931173707,-1.512566575876423,0.2944488525390625,-0.0126190185546875,-1.028839111328125,101.27635192871094,-64.68255615234375,-66.90269470214844,,,,,,,,,,
0,2022-09-06 15:22:11.2500,00:31,60,0,2022-09-06 15:22:16.9580,1662448936.957649,0.27547551894503336,3.7555250544152528,-1.86388705845415,0.5354461669921875,-0.072784423828125,-1.05877685546875,102.42851257324219,-63.948333740234375,-64.51869201660156,,,,,,,,,,
0,2022-09-06 15:22:11.2500,00:31,60,0,2022-09-06 15:22:16.9740,1662448936.9740539,0.7094903491630288,0.7916041276856599,0.8502956707371532,0.1613616943359375,-0.6746826171875,-0.85223388671875,102.27871704101562,-65.01139831542969,-64.31752014160156,,,,,,,,,,
0,2022-09-06 15:22:11.2500,00:31,60,0,2022-09-06 15:22:16.9910,1662448936.9913812,0.38831844802165283,0.3366866787038506,1.036517742593162,0.397125244140625,0.3860321044921875,-1.1114959716796875,102.22355651855469,-65.56251525878906,-64.6558837890625,,,,,,,,,,
0,2022-09-06 15:22:11.2500,00:31,60,0,2022-09-06 15:22:17.0070,1662448937.0074239,0.39048093482679713,0.011653726614077738,0.7150297242303936,0.1530914306640625,0.1080322265625,-0.8429107666015625,102.27351379394531,-66.14228820800781,-62.16496276855469,,,,,,,,,,
0,2022-09-06 15:22:11.2500,00:31,60,0,2022-09-06 15:22:17.0250,1662448937.024703,0.3631204167356501,0.2348836176100456,-0.07765165211620341,0.0880889892578125,-0.0850372314453125,-0.9865875244140625,102.27351379394531,-66.14228820800781,-62.16496276855469,,,,,,,,,,
0,2022-09-06 15:22:11.2500,00:31,60,0,2022-09-06 15:22:17.0420,1662448937.042429,0.50572550257445,0.585041364055844,-0.7969871751970371,0.113189697265625,-0.0028533935546875,-0.9539794921875,102.42721557617188,-65.07170104980469,-62.907012939453125,,,,,,,,,,
0,2022-09-06 15:22:11.2500,00:31,60,0,2022-09-06 15:22:17.0600,1662448937.059742,0.7656332470513162,0.7516300797235705,-1.1198520478433764,0.14599609375,-0.08392333984375,-1.0313568115234375,102.72731018066406,-64.55743408203125,-63.01106262207031,,,,,,,,,,
0,2022-09-06 15:22:11.2500,00:31,60,0,2022-09-06 15:22:17.0770,1662448937.07661,1.1711498567604828,0.7911071818262512,-1.486818069193101,0.1550750732421875,-0.1080780029296875,-1.201995849609375,102.9786376953125,-64.18682861328125,-63.45982360839844,,,,,,,,,,
0,2022-09-06 15:22:11.2500,00:31,60,0,2022-09-06 15:22:17.0930,1662448937.093278,1.8930984735029022,-0.1038100192912887,-1.372514396258573,0.3117523193359375,-0.0972747802734375,-1.433837890625,102.71073913574219,-63.945892333984375,-64.17462158203125,,,,,,,,,,
0,2022-09-06 15:22:11.2500,00:31,60,0,2022-09-06 15:22:17.1100,1662448937.1102118,3.1907655262731254,-1.777881336314477,0.18473869112883462,0.498748779296875,0.016021728515625,-1.518280029296875,102.20347595214844,-65.24131774902344,-64.92500305175781,,,,,,,,,,
0,2022-09-06 15:22:11.2500,00:31,60,0,2022-09-06 15:22:17.1250,1662448937.12458,3.1907655262731254,-1.777881336314477,0.18473869112883462,0.498748779296875,0.016021728515625,-1.518280029296875,102.20347595214844,-65.24131774902344,-64.92500305175781,,,,,,,,,,
0,2022-09-06 15:22:11.2500,00:31,60,0,2022-09-06 15:22:17.1410,1662448937.1413379,3.432573629033486,-1.8434305191729243,0.7096450788223624,0.5399627685546875,-0.1365966796875,-1.4659576416015625,101.68846130371094,-67.408935546875,-64.35673522949219,,,,,,,,,,
0,2022-09-06 15:22:11.2500,00:31,60,0,2022-09-06 15:22:17.1580,1662448937.15752,3.7285901094663005,-1.5176926283426075,1.0855955404255782,0.4984130859375,-0.324920654296875,-1.305999755859375,100.78785705566406,-69.75068664550781,-65.69032287597656,,,,,,,,,,
0,2022-09-06 15:22:11.2500,00:31,60,0,2022-09-06 15:22:17.1750,1662448937.1746612,3.814290367028941,-2.376806558081231,1.230813187293746,0.255859375,-0.1280670166015625,-1.2536163330078125,99.82412719726562,-71.86866760253906,-66.7646484375,,,,,,,,,,
0,2022-09-06 15:22:11.2500,00:31,60,0,2022-09-06 15:22:17.1910,1662448937.190898,3.461920598981723,-2.710945390570203,1.0716847847876583,0.1136016845703125,-0.283111572265625,-1.0035858154296875,98.51768493652344,-74.18040466308594,-66.97026062011719,,,,,,,,,,
0,2022-09-06 15:22:11.2500,00:31,60,0,2022-09-06 15:22:17.2080,1662448937.207902,3.066742380624244,-2.7069349362846524,1.0073734392038798,0.03887939453125,-0.364837646484375,-0.8108673095703125,97.18367004394531,-76.28251647949219,-68.57978820800781,,,,,,,,,,
0,2022-09-06 15:22:11.2500,00:31,60,0,2022-09-06 15:22:17.2250,1662448937.225337,3.1924209472067187,-2.986811062614933,1.0264882779279236,0.0424346923828125,-0.4752349853515625,-0.7531280517578125,95.51771545410156,-78.45783996582031,-68.80369567871094,,,,,,,,,,
0,2022-09-06 15:22:11.2500,00:31,60,0,2022-09-06 15:22:17.2430,1662448937.2433429,3.7351151204531035,-3.389409380401591,0.7800177790471612,0.0565643310546875,-0.3767242431640625,-0.826263427734375,95.51771545410156,-78.45783996582031,-68.80369567871094,,,,,,,,,,
0,2022-09-06 15:22:11.2500,00:31,60,0,2022-09-06 15:22:17.2580,1662448937.2575579,3.5409325937827387,-3.2372949452584447,0.7597034525681458,-0.024383544921875,-0.4444732666015625,-0.6415252685546875,94.03359985351562,-80.71281433105469,-70.10624694824219,,,,,,,,,,
0,2022-09-06 15:22:11.2500,00:31,60,0,2022-09-06 15:22:17.2740,1662448937.274424,2.9808463807214824,-3.2170157725058184,0.9156118270002186,-0.073028564453125,-0.625946044921875,-0.5714569091796875,92.27365112304688,-82.33351135253906,-69.99644470214844,,,,,,,,,,
0,2022-09-06 15:22:11.2500,00:31,60,0,2022-09-06 15:22:17.2910,1662448937.291146,2.2837240179768905,-3.4619980969694444,1.023678110345672,-0.1092529296875,-0.6428680419921875,-0.6122589111328125,90.10810852050781,-83.53605651855469,-70.66673278808594,,,,,,,,,,
0,2022-09-06 15:22:11.2500,00:31,60,0,2022-09-06 15:22:17.3080,1662448937.307888,2.0256882094302413,-3.5254287351807334,1.2552066776144357,-0.135223388671875,-0.617919921875,-0.597747802734375,88.04400634765625,-85.51646423339844,-71.58706665039062,,,,,,,,,,
0,2022-09-06 15:22:11.2500,00:31,60,0,2022-09-06 15:22:17.3250,1662448937.325019,1.8978913645167177,-2.8022342916803753,1.5729012893204952,-0.14239501953125,-0.595184326171875,-0.39239501953125,86.03427124023438,-86.98814392089844,-71.19264221191406,,,,,,,,,,
0,2022-09-06 15:22:11.2500,00:31,60,0,2022-09-06 15:22:17.3420,1662448937.341608,1.7076918615726757,-2.2062137797145707,1.9604929606806654,-0.1181640625,-0.63134765625,-0.286895751953125,86.03427124023438,-86.98814392089844,-71.19264221191406,,,,,,,,,,
0,2022-09-06 15:22:11.2500,00:31,60,0,2022-09-06 15:22:17.3580,1662448937.358187,1.3381769287436365,-1.5996010771451936,2.468986819208253,-0.14971923828125,-0.6150970458984375,-0.3857421875,83.5845947265625,-88.16909790039062,-71.44332885742188,,,,,,,,,,
0,2022-09-06 15:22:11.2500,00:31,60,0,2022-09-06 15:22:17.3750,1662448937.375349,0.5135711751458235,-0.3406148413117175,2.9072126397418816,-0.3095245361328125,-0.635223388671875,-0.182373046875,81.68257141113281,-88.99073791503906,-71.91403198242188,,,,,,,,,,
0,2022-09-06 15:22:11.2500,00:31,60,0,2022-09-06 15:22:17.3920,1662448937.392295,-0.7396770138029679,0.7213352907433742,3.1480857066435153,-0.4671783447265625,-0.665740966796875,-0.0444183349609375,79.99105834960938,-89.41094970703125,-73.02531433105469,,,,,,,,,,
0,2022-09-06 15:22:11.2500,00:31,60,0,2022-09-06 15:22:17.4100,1662448937.4098082,-2.623233647436225,1.3187949749622576,3.1643541587944823,-0.3882293701171875,-0.547698974609375,-0.2434539794921875,78.5064697265625,-88.01400756835938,-74.36149597167969,,,,,,,,,,
0,2022-09-06 15:22:11.2500,00:31,60,0,2022-09-06 15:22:17.4260,1662448937.426392,-4.515573386344564,3.59268553693014,2.5526662701357417,-0.239715576171875,-0.40301513671875,-0.2194671630859375,79.84036254882812,-86.10232543945312,-76.39482116699219,,,,,,,,,,
0,2022-09-06 15:22:11.2500,00:31,60,0,2022-09-06 15:22:17.4430,1662448937.443124,-5.445799576142702,7.482183040510701,1.1112524343674015,-0.1580047607421875,-0.053375244140625,0.04766845703125,79.84036254882812,-86.10232543945312,-76.39482116699219,,,,,,,,,,
0,2022-09-06 15:22:11.2500,00:31,60,0,2022-09-06 15:22:17.4600,1662448937.4600601,-4.76617950808211,9.480227105193702,-0.4181085679752792,-0.0402069091796875,0.14898681640625,0.131591796875,84.16474914550781,-83.80967712402344,-77.06715393066406,,,,,,,,,,
0,2022-09-06 15:22:11.2500,00:31,60,0,2022-09-06 15:22:17.4770,1662448937.4769092,0.6634131349308048,-0.09249238360677897,-0.5246696326726197,-0.3270416259765625,-0.3560943603515625,-1.9538421630859375,84.81446838378906,-83.007080078125,-76.84664916992188,,,,,,,,,,
0,2022-09-06 15:22:11.2500,00:31,60,0,2022-09-06 15:22:17.4910,1662448937.491296,0.583463174793863,0.4838937069063075,-0.5909115037305966,-1.1503448486328125,-0.9584197998046875,-1.44976806640625,85.33544921875,-82.5692138671875,-76.2127685546875,,,,,,,,,,
0,2022-09-06 15:22:11.2500,00:31,60,0,2022-09-06 15:22:17.5080,1662448937.5080628,0.3016139124119431,1.4366153521162353,-1.0259923973329508,0.074859619140625,-0.0447235107421875,-0.4285430908203125,86.50196838378906,-82.54925537109375,-76.24398803710938,,,,,,,,,,
0,2022-09-06 15:22:11.2500,00:31,60,0,2022-09-06 15:22:17.5240,1662448937.524205,0.3646743712317113,1.343440932954287,-1.3302095497104462,-0.1011962890625,-0.064971923828125,-0.663848876953125,87.37167358398438,-81.56643676757812,-73.21237182617188,,,,,,,,,,
0,2022-09-06 15:22:11.2500,00:31,60,0,2022-09-06 15:22:17.5410,1662448937.541038,0.2625836887401778,1.9108250063506875,-1.4116221179180597,-0.1452484130859375,-0.283355712890625,-0.6645050048828125,87.37167358398438,-81.56643676757812,-73.21237182617188,,,,,,,,,,
0,2022-09-06 15:22:11.2500,00:31,60,0,2022-09-06 15:22:17.5570,1662448937.5573878,0.2292140139653759,2.583424715461721,-1.3272899262073925,-0.1835784912109375,-0.39825439453125,-0.5214996337890625,88.88949584960938,-81.21127319335938,-71.61639404296875,,,,,,,,,,
0,2022-09-06 15:22:11.2500,00:31,60,0,2022-09-06 15:22:17.5750,1662448937.574655,0.020375845500196253,2.519906991882786,-1.1199271489861167,-0.111572265625,-0.485443115234375,-0.6339263916015625,90.23915100097656,-80.80213928222656,-72.91487121582031,,,,,,,,,,
0,2022-09-06 15:22:11.2500,00:31,60,0,2022-09-06 15:22:17.5910,1662448937.591104,-0.24785827212480263,2.29240033049226,-1.0016090270244034,0.020751953125,-0.502288818359375,-0.6572723388671875,91.12478637695312,-80.02079772949219,-71.17048645019531,,,,,,,,,,
0,2022-09-06 15:22:11.2500,00:31,60,0,2022-09-06 15:22:17.6080,1662448937.6075978,-0.6060952503695745,1.910271867792278,-1.0100057076253142,0.1709136962890625,-0.453643798828125,-0.6998443603515625,91.72846984863281,-78.87969970703125,-71.54888916015625,,,,,,,,,,
0,2022-09-06 15:22:11.2500,00:31,60,0,2022-09-06 15:22:17.6240,1662448937.62434,-0.892873224980904,1.3903538471365777,-1.213601443484673,0.258087158203125,-0.3172607421875,-0.759765625,92.26466369628906,-77.6058349609375,-69.60145568847656,,,,,,,,,,
0,2022-09-06 15:22:11.2500,00:31,60,0,2022-09-06 15:22:17.6410,1662448937.6410341,-1.3721253084233125,1.0563702769391576,-1.427024510082533,0.297607421875,-0.2218170166015625,-0.8634185791015625,92.26466369628906,-77.6058349609375,-69.60145568847656,,,,,,,,,,
0,2022-09-06 15:22:11.2500,00:31,60,0,2022-09-06 15:22:17.6580,1662448937.657891,-1.8930827608524707,1.0096475124586985,-1.4695586548005155,0.291473388671875,-0.2840118408203125,-0.939453125,92.59475708007812,-76.19247436523438,-68.75053405761719,,,,,,,,,,
0,2022-09-06 15:22:11.2500,00:31,60,0,2022-09-06 15:22:17.6750,1662448937.674728,-2.0870165482770218,0.47664538136743884,-1.238614385074915,0.3370819091796875,-0.4152984619140625,-1.07086181640625,92.84660339355469,-75.18838500976562,-70.95608520507812,,,,,,,,,,
0,2022-09-06 15:22:11.2500,00:31,60,0,2022-09-06 15:22:17.6930,1662448937.6934571,-1.9456463702356916,-0.15901868026917634,-0.8211420462840558,0.3314056396484375,-0.4847869873046875,-1.1056671142578125,92.56428527832031,-73.51669311523438,-71.49041748046875,,,,,,,,,,
0,2022-09-06 15:22:11.2500,00:31,60,0,2022-09-06 15:22:17.7090,1662448937.708945,-1.8690546562333399,-0.21028639546596475,-0.4108232244972584,0.3950653076171875,-0.446533203125,-1.026885986328125,92.52534484863281,-73.23504638671875,-72.71421813964844,,,,,,,,,,
0,2022-09-06 15:22:11.2500,00:31,60,0,2022-09-06 15:22:17.7250,1662448937.725398,-1.8481573637917061,-0.0004735100418160885,-0.1731632614508052,0.47772216796875,-0.2962799072265625,-0.97821044921875,92.2088623046875,-72.55511474609375,-72.35600280761719,,,,,,,,,,
0,2022-09-06 15:22:11.2500,00:31,60,0,2022-09-06 15:22:17.7410,1662448937.74136,-1.7297233943225743,-0.005797169060884485,0.017311079717733064,0.46502685546875,-0.2302093505859375,-1.027740478515625,92.2088623046875,-72.55511474609375,-72.35600280761719,,,,,,,,,,
0,2022-09-06 15:22:11.2500,00:31,60,0,2022-09-06 15:22:17.7580,1662448937.75786,-1.475700703222565,-0.2001006032447387,0.1099097234520062,0.3761444091796875,-0.2454071044921875,-1.0157470703125,92.43096923828125,-72.565673828125,-71.71478271484375,,,,,,,,,,
0,2022-09-06 15:22:11.2500,00:31,60,0,2022-09-06 15:22:17.7750,1662448937.775033,-1.2958300042502864,-0.4215256699699598,0.0056941047266984195,0.292205810546875,-0.1737213134765625,-0.9741058349609375,92.18539428710938,-71.901123046875,-73.78163146972656,,,,,,,,,,
0,2022-09-06 15:22:11.2500,00:31,60,0,2022-09-06 15:22:17.7920,1662448937.791689,-1.23421058189636,-0.6645487068196146,-0.043256660321721034,0.1813201904296875,-0.144195556640625,-0.914825439453125,92.20951843261719,-71.72518920898438,-73.58566284179688,,,,,,,,,,
0,2022-09-06 15:22:11.2500,00:31,60,0,2022-09-06 15:22:17.8080,1662448937.808384,-1.180371850983209,-0.43476104795543563,-0.01310035571820878,0.1775665283203125,-0.1287078857421875,-0.8106536865234375,92.90155029296875,-71.17318725585938,-74.32398986816406,,,,,,,,,,
0,2022-09-06 15:22:11.2500,00:31,60,0,2022-09-06 15:22:17.8240,1662448937.824456,-1.1045266210344065,0.5470247394949629,-0.11788802144566557,0.2432861328125,-0.0603179931640625,-0.722259521484375,94.16754150390625,-71.06428527832031,-72.90916442871094,,,,,,,,,,
0,2022-09-06 15:22:11.2500,00:31,60,0,2022-09-06 15:22:17.8410,1662448937.841496,-0.8720805947701104,1.9245613249372073,-0.3176948780221685,0.3390350341796875,-0.0374603271484375,-0.7274932861328125,94.16754150390625,-71.06428527832031,-72.90916442871094,,,,,,,,,,
0,2022-09-06 15:22:11.2500,00:31,60,0,2022-09-06 15:22:17.8580,1662448937.858295,-0.347757971987528,1.793947121906489,-0.2362687276929958,0.2588348388671875,-0.2017974853515625,-0.993133544921875,95.51939392089844,-71.08094787597656,-71.29090881347656,,,,,,,,,,
0,2022-09-06 15:22:11.2500,00:31,60,0,2022-09-06 15:22:17.8750,1662448937.875471,-0.38708593706916417,-0.09809407664365163,-0.10823512775856436,0.13623046875,-0.21612548828125,-1.319091796875,96.0621337890625,-70.55943298339844,-71.43162536621094,,,,,,,,,,
0,2022-09-06 15:22:11.2500,00:31,60,0,2022-09-06 15:22:17.8930,1662448937.8932118,-0.9551752155222177,-0.49042484316361784,-0.517083618307529,0.06146240234375,-0.064483642578125,-1.1300048828125,96.49220275878906,-70.60060119628906,-71.17951965332031,,,,,,,,,,
0,2022-09-06 15:22:11.2500,00:31,60,0,2022-09-06 15:22:17.9090,1662448937.908514,-1.5096975524340808,0.24262835637610503,-0.6951012897933306,0.0931243896484375,-0.0803680419921875,-0.8340606689453125,97.27879333496094,-69.59580993652344,-71.19638061523438,,,,,,,,,,
0,2022-09-06 15:22:11.2500,00:31,60,0,2022-09-06 15:22:17.9260,1662448937.925539,-1.6277821151681942,2.220446511528281,-0.37965864710504216,0.098419189453125,-0.1669769287109375,-0.5900421142578125,98.26995849609375,-68.50424194335938,-69.66136169433594,,,,,,,,,,
0,2022-09-06 15:22:11.2500,00:31,60,0,2022-09-06 15:22:17.9430,1662448937.9432259,-1.2025996587054464,3.2060869583404603,0.020732975402375876,0.1623992919921875,-0.2261962890625,-0.7111053466796875,99.69625854492188,-68.23951721191406,-67.6993408203125,,,,,,,,,,
0,2022-09-06 15:22:11.2500,00:31,60,0,2022-09-06 15:22:17.9600,1662448937.960036,-0.9590815402091459,2.460347258315927,0.2443823142700312,0.2478790283203125,-0.1987457275390625,-1.1958465576171875,99.69625854492188,-68.23951721191406,-67.6993408203125,,,,,,,,,,
0,2022-09-06 15:22:11.2500,00:31,60,0,2022-09-06 15:22:17.9760,1662448937.976479,-0.9791702969438317,1.65940049521016,0.4156643187268044,0.313385009765625,-0.1755218505859375,-1.3447418212890625,100.43724060058594,-67.90689086914062,-66.46658325195312,,,,,,,,,,
0,2022-09-06 15:22:11.2500,00:31,60,0,2022-09-06 15:22:17.9930,1662448937.993165,-1.03063668395794,1.4454543837742082,0.5586001691729923,0.273406982421875,-0.164794921875,-1.207489013671875,100.99781799316406,-68.1160888671875,-64.72393798828125,,,,,,,,,,
0,2022-09-06 15:22:11.2500,00:31,60,0,2022-09-06 15:22:18.0100,1662448938.009629,-1.0257465875643366,1.4593129414547625,0.7109303203644346,0.2801666259765625,-0.1275787353515625,-1.0925445556640625,101.49534606933594,-68.43063354492188,-64.37016296386719,,,,,,,,,,
0,2022-09-06 15:22:11.2500,00:31,60,0,2022-09-06 15:22:18.0260,1662448938.026442,-1.009330063656761,1.4830094825181785,0.921909670346038,0.271392822265625,-0.0445404052734375,-1.055389404296875,101.76930236816406,-69.09910583496094,-63.778533935546875,,,,,,,,,,
0,2022-09-06 15:22:11.2500,00:31,60,0,2022-09-06 15:22:18.0430,1662448938.042801,-0.8067628406103909,1.0591855045274805,0.8867109365345697,0.300811767578125,-0.025634765625,-1.11541748046875,101.89886474609375,-69.466552734375,-62.745086669921875,,,,,,,,,,
0,2022-09-06 15:22:11.2500,00:31,60,0,2022-09-06 15:22:18.0600,1662448938.060007,-0.5681595859058317,0.40905488553344577,0.6243344417272001,0.3135223388671875,0.0044708251953125,-1.2340240478515625,101.89886474609375,-69.466552734375,-62.745086669921875,,,,,,,,,,
0,2022-09-06 15:22:11.2500,00:31,60,0,2022-09-06 15:22:18.0770,1662448938.076879,-0.4012709982993622,-0.6141015115546796,0.478970320999078,0.3869781494140625,0.10406494140625,-1.313934326171875,101.71249389648438,-69.29249572753906,-63.04710388183594,,,,,,,,,,
0,2022-09-06 15:22:11.2500,00:31,60,0,2022-09-06 15:22:18.0920,1662448938.09218,0.37111442737974093,-0.5342876389494409,0.6599944350394701,0.4392242431640625,0.0933990478515625,-1.4764404296875,101.62139892578125,-70.03604125976562,-63.653564453125,,,,,,,,,,
0,2022-09-06 15:22:11.2500,00:31,60,0,2022-09-06 15:22:18.1090,1662448938.108818,0.9584996395109636,0.5453307027255635,0.45458455384554947,0.2837371826171875,0.0325469970703125,-0.7711944580078125,101.55569458007812,-70.66549682617188,-62.86004638671875,,,,,,,,,,
0,2022-09-06 15:22:11.2500,00:31,60,0,2022-09-06 15:22:18.1270,1662448938.1267262,1.0724890594368623,0.7483613158016074,0.12287931796069208,0.21826171875,-0.0231170654296875,-0.781494140625,101.71815490722656,-70.8111572265625,-61.78746032714844,,,,,,,,,,
0,2022-09-06 15:22:11.2500,00:31,60,0,2022-09-06 15:22:18.1430,1662448938.143389,0.49046452426386,0.1550542986704844,-0.36893676055638314,0.2610321044921875,-0.049041748046875,-0.8368072509765625,101.95021057128906,-70.88436889648438,-61.57936096191406,,,,,,,,,,
0,2022-09-06 15:22:11.2500,00:31,60,0,2022-09-06 15:22:18.1590,1662448938.1586509,-0.11549730173510145,-0.6561152745956607,-0.4719366462440697,0.295074462890625,-0.10797119140625,-1.4606781005859375,101.95021057128906,-70.88436889648438,-61.57936096191406,,,,,,,,,,
0,2022-09-06 15:22:11.2500,00:31,60,0,2022-09-06 15:22:18.1750,1662448938.17481,-0.7318870012983771,-0.40984371384832724,-0.6420884051342134,0.28765869140625,-0.070770263671875,-0.77960205078125,102.03842163085938,-70.07698059082031,-60.389129638671875,,,,,,,,,,
0,2022-09-06 15:22:11.2500,00:31,60,0,2022-09-06 15:22:18.1910,1662448938.190712,-0.3621709998070368,-1.8680410571224557,0.07949083116501213,0.3267364501953125,-0.088592529296875,-0.722808837890625,102.01400756835938,-69.42112731933594,-63.247222900390625,,,,,,,,,,
0,2022-09-06 15:22:11.2500,00:31,60,0,2022-09-06 15:22:18.2070,1662448938.2071362,0.08182855396988369,-0.8757419086367514,-0.06385621135348395,0.7805328369140625,-0.25543212890625,-1.175994873046875,101.90725708007812,-69.64729309082031,-62.85374450683594,,,,,,,,,,
0,2022-09-06 15:22:11.2500,00:31,60,0,2022-09-06 15:22:18.2240,1662448938.223825,0.036163863390513,-0.92080046375202,0.054116232298737146,0.3847503662109375,-0.023468017578125,-0.93817138671875,101.64364624023438,-69.64071655273438,-61.60205078125,,,,,,,,,,
0,2022-09-06 15:22:11.2500,00:31,60,0,2022-09-06 15:22:18.2410,1662448938.241426,0.00787070628562018,-1.024080247670274,0.011757057264372813,0.362945556640625,0.0074920654296875,-0.9330291748046875,101.64364624023438,-69.64071655273438,-61.60205078125,,,,,,,,,,
0,2022-09-06 15:22:11.2500,00:31,60,0,2022-09-06 15:22:18.2580,1662448938.2578,0.0022767364159087407,-0.7647757091803107,0.002381664962857863,0.3395538330078125,-0.0072021484375,-0.9474029541015625,101.51914978027344,-69.22886657714844,-63.359375,,,,,,,,,,
0,2022-09-06 15:22:11.2500,00:31,60,0,2022-09-06 15:22:18.2740,1662448938.2743568,-0.0021766015589217615,-0.5047854067096521,-0.001496163900406516,0.3189849853515625,-0.0123291015625,-0.959136962890625,101.69270324707031,-69.39842224121094,-63.74114990234375,,,,,,,,,,
0,2022-09-06 15:22:11.2500,00:31,60,0,2022-09-06 15:22:18.2910,1662448938.290849,-0.0032565133809488926,-0.6498959945019986,-0.002709233776937609,0.3193817138671875,-0.012664794921875,-0.9518280029296875,101.48666381835938,-69.33195495605469,-64.7376708984375,,,,,,,,,,
0,2022-09-06 15:22:11.2500,00:31,60,0,2022-09-06 15:22:18.3070,1662448938.3074532,-0.005522597152497317,-1.2920022428155156,0.0026248115703820974,0.3305206298828125,-0.01202392578125,-0.9350128173828125,101.15771484375,-68.85098266601562,-65.41853332519531,,,,,,,,,,
0,2022-09-06 15:22:11.2500,00:31,60,0,2022-09-06 15:22:18.3240,1662448938.324213,-0.00034541199338327717,-2.2096002553567153,0.01111869755108082,0.3287353515625,-0.0118255615234375,-0.9264373779296875,100.67391967773438,-68.92221069335938,-67.06549072265625,,,,,,,,,,
0,2022-09-06 15:22:11.2500,00:31,60,0,2022-09-06 15:22:18.3410,1662448938.341305,-0.0052562810434893924,-2.988872881930872,0.00948325032566316,0.30401611328125,-0.01123046875,-0.9300384521484375,100.67391967773438,-68.92221069335938,-67.06549072265625,,,,,,,,,,
0,2022-09-06 15:22:11.2500,00:31,60,0,2022-09-06 15:22:18.3590,1662448938.358562,-0.01787966461046498,-2.683194985695468,0.016041284509983284,0.22454833984375,-0.011260986328125,-0.9763031005859375,99.84376525878906,-68.74913024902344,-68.55303955078125,,,,,,,,,,
0,2022-09-06 15:22:11.2500,00:31,60,0,2022-09-06 15:22:18.3760,1662448938.37641,0.005549228763398108,-1.7259781908815959,0.007356716195234887,0.1519775390625,-0.0127716064453125,-1.0113372802734375,99.44615173339844,-68.85026550292969,-69.66488647460938,,,,,,,,,,
0,2022-09-06 15:22:11.2500,00:31,60,0,2022-09-06 15:22:18.3930,1662448938.393254,0.19033638942407216,-1.0091785297907356,-0.009762083291794456,0.1163330078125,-0.01446533203125,-1.020172119140625,99.21827697753906,-68.70358276367188,-70.49758911132812,,,,,,,,,,
0,2022-09-06 15:22:11.2500,00:31,60,0,2022-09-06 15:22:18.4100,1662448938.409909,0.20314885742844338,-0.6224720931769077,-0.00010226538585904275,0.0936737060546875,0.0088043212890625,-1.1798553466796875,98.83293151855469,-68.67190551757812,-71.15643310546875,,,,,,,,,,
0,2022-09-06 15:22:11.2500,00:31,60,0,2022-09-06 15:22:18.4240,1662448938.4243789,0.4072268917612154,-1.0487989099600623,0.02075587858775056,0.1252288818359375,-0.0301361083984375,-0.9080810546875,98.34304809570312,-69.06607055664062,-70.90325927734375,,,,,,,,,,
0,2022-09-06 15:22:11.2500,00:31,60,0,2022-09-06 15:22:18.4420,1662448938.442028,0.6380318781618046,-1.7924925033190877,0.041362886470565685,0.136444091796875,9.1552734375e-05,-1.09869384765625,97.54026794433594,-69.92813110351562,-72.82484436035156,,,,,,,,,,
0,2022-09-06 15:22:11.2500,00:31,60,0,2022-09-06 15:22:18.4590,1662448938.459453,0.8870148032149477,-2.3191563110159588,0.03740223329739985,0.0925445556640625,0.0018157958984375,-1.0885009765625,97.54026794433594,-69.92813110351562,-72.82484436035156,,,,,,,,,,
0,2022-09-06 15:22:11.2500,00:31,60,0,2022-09-06 15:22:18.4760,1662448938.475573,0.9456874378227015,-2.4928048004173764,-0.028667064921939944,0.0228729248046875,0.0002593994140625,-1.0605926513671875,96.82185363769531,-69.91822814941406,-73.44915771484375,,,,,,,,,,
0,2022-09-06 15:22:11.2500,00:31,60,0,2022-09-06 15:22:18.4930,1662448938.493404,-0.4898386814076914,1.0398877066365482,-0.168786888831478,-0.069000244140625,-0.0055694580078125,-0.9639739990234375,97.13331604003906,-69.85836791992188,-73.39903259277344,,,,,,,,,,
0,2022-09-06 15:22:11.2500,00:31,60,0,2022-09-06 15:22:18.5100,1662448938.510088,0.03980946460672247,-0.28047373967889405,0.004448277968759352,-0.1185455322265625,-0.1355133056640625,-0.8056488037109375,97.10537719726562,-69.72471618652344,-74.54670715332031,,,,,,,,,,
0,2022-09-06 15:22:11.2500,00:31,60,0,2022-09-06 15:22:18.5270,1662448938.526582,-0.15474723619679825,0.4012483614300965,-0.17286685162147938,0.0322418212890625,-0.1667633056640625,-0.7059173583984375,97.19802856445312,-70.0904541015625,-74.08218383789062,,,,,,,,,,
0,2022-09-06 15:22:11.2500,00:31,60,0,2022-09-06 15:22:18.5430,1662448938.542923,0.0035760927117584012,-0.00634178550380569,0.005828860677856429,0.0269622802734375,-0.0931396484375,-0.926025390625,97.19863891601562,-70.22975158691406,-73.62960815429688,,,,,,,,,,
0,2022-09-06 15:22:11.2500,00:31,60,0,2022-09-06 15:22:18.5600,1662448938.559805,0.002640257904704557,-0.016453009214509533,-0.0030565099830839417,-0.006744384765625,-0.061767578125,-0.9998931884765625,97.19863891601562,-70.22975158691406,-73.62960815429688,,,,,,,,,,
0,2022-09-06 15:22:11.2500,00:31,60,0,2022-09-06 15:22:18.5770,1662448938.576513,-0.0003922836285686718,-0.011623899209868852,-0.006479204616053779,-0.006622314453125,-0.062408447265625,-1.001953125,97.2052001953125,-70.07508850097656,-73.99395751953125,,,,,,,,,,
0,2022-09-06 15:22:11.2500,00:31,60,0,2022-09-06 15:22:18.5930,1662448938.593339,-0.0010112022659030868,-0.011819641549989674,-0.003909520480236322,-0.008087158203125,-0.0626068115234375,-1.00390625,97.14662170410156,-69.95521545410156,-74.1728515625,,,,,,,,,,
0,2022-09-06 15:22:11.2500,00:31,60,0,2022-09-06 15:22:18.6100,1662448938.609853,5.7524279545711544e-05,-0.012011655464584388,-0.003711647611243434,-0.00701904296875,-0.062103271484375,-1.0030517578125,97.17381286621094,-70.43824768066406,-74.14408874511719,,,,,,,,,,
0,2022-09-06 15:22:11.2500,00:31,60,0,2022-09-06 15:22:18.6270,1662448938.626622,-0.0052357747030957824,-0.0075026574229712295,-0.0062429822273637504,-0.008087158203125,-0.061737060546875,-1.002899169921875,97.187255859375,-70.18917846679688,-73.87773132324219,,,,,,,,,,
0,2022-09-06 15:22:11.2500,00:31,60,0,2022-09-06 15:22:18.6430,1662448938.6430578,-0.0004157194461613691,-0.00957805886046998,-0.006241916962927719,-0.0073699951171875,-0.062225341796875,-1.0031280517578125,97.14421081542969,-70.16867065429688,-74.32455444335938,,,,,,,,,,
0,2022-09-06 15:22:11.2500,00:31,60,0,2022-09-06 15:22:18.6600,1662448938.659923,-0.002112153060541844,-0.012709403670185148,-0.0063969129383703305,-0.007843017578125,-0.0612945556640625,-1.003326416015625,97.14421081542969,-70.16867065429688,-74.32455444335938,,,,,,,,,,
0,2022-09-06 15:22:11.2500,00:31,60,0,2022-09-06 15:22:18.6760,1662448938.6763148,-0.0017329189213145602,-0.012204468327506124,-0.007037403180534387,-0.008087158203125,-0.061492919921875,-1.0021820068359375,97.30345153808594,-70.51664733886719,-73.73616027832031,,,,,,,,,,
0,2022-09-06 15:22:11.2500,00:31,60,0,2022-09-06 15:22:18.6930,1662448938.693182,0.00038509309362545784,-0.010125338464481264,-0.005336442192300777,-0.007293701171875,-0.0610504150390625,-1.0034637451171875,97.25823974609375,-70.56257629394531,-74.33384704589844,,,,,,,,,,
0,2022-09-06 15:22:11.2500,00:31,60,0,2022-09-06 15:22:18.7100,1662448938.7097,-0.0038546593617806895,-0.009272327967328884,-0.005487709742217278,-0.008392333984375,-0.0612030029296875,-1.0029296875,97.46305847167969,-70.70610046386719,-73.83799743652344,,,,,,,,,,
0,2022-09-06 15:22:11.2500,00:31,60,0,2022-09-06 15:22:18.7270,1662448938.726606,-0.002380067066203815,-0.009227586861015552,-0.00685098190422884,-0.00799560546875,-0.0610504150390625,-1.00299072265625,97.46302795410156,-70.59132385253906,-74.08604431152344,,,,,,,,,,
0,2022-09-06 15:22:11.2500,00:31,60,0,2022-09-06 15:22:18.7430,1662448938.743329,-0.002367017576862427,-0.009645170519939976,-0.004938565925442939,-0.007110595703125,-0.0617828369140625,-1.0028839111328125,97.74127197265625,-71.02021789550781,-74.012939453125,,,,,,,,,,
0,2022-09-06 15:22:11.2500,00:31,60,0,2022-09-06 15:22:18.7600,1662448938.759842,-5.1931641256545146e-05,-0.010391654573489187,-0.006668555369558412,-0.0073089599609375,-0.0609283447265625,-1.003021240234375,97.74127197265625,-71.02021789550781,-74.012939453125,,,,,,,,,,
