SessionID,SessionDate,SessionDuration,SessionFrequency,RecordID,Timestamp,timeIntervalSince1970,GyroX,GyroY,GyroZ,AccX,AccY,AccZ,MagX,MagY,MagZ,WatchTimestamp,WatchtImeIntervalSince1970,WatchGyroX,WatchGyroY,WatchGyroZ,WatchAccX,WatchAccY,WatchAccZ
0,2022-09-06 17:38:30.4740,00:02,51,0,2022-09-06 17:38:30.5010,1662457110.500896,-0.0018090853284908265,-0.00812850027913985,-0.007405984675401354,0.0122833251953125,-0.0301666259765625,-1.070068359375,95.42697143554688,-72.54780578613281,-67.33119201660156,,,,,,,,,,
0,2022-09-06 17:38:30.4740,00:02,51,0,2022-09-06 17:38:30.5090,1662457110.5092912,-0.0018090853284908265,-0.00812850027913985,-0.007405984675401354,0.0122833251953125,-0.0301666259765625,-1.070068359375,95.41497802734375,-72.29751586914062,-67.80239868164062,,,,,,,,,,
0,2022-09-06 17:38:30.4740,00:02,51,0,2022-09-06 17:38:30.5290,1662457110.529202,-0.0018090853284908265,-0.00812850027913985,-0.007405984675401354,-0.0349273681640625,-0.0557403564453125,-0.80694580078125,95.61402893066406,-72.52658081054688,-66.88104248046875,,,,,,,,,,
0,2022-09-06 17:38:30.4740,00:02,51,0,2022-09-06 17:38:30.5610,1662457110.56129,0.03308311864150933,-0.05307440368029814,-0.004297010418842851,0.0067291259765625,-0.036407470703125,-0.962799072265625,95.34024047851562,-72.19111633300781,-68.07884216308594,,,,,,,,,,
0,2022-09-06 17:38:30.4740,00:02,51,0,2022-09-06 17:38:30.5780,1662457110.577753,-0.010799917168598334,0.0051942293900905465,-0.007456584736112859,0.01568603515625,-0.0357666015625,-0.9783782958984375,95.48310852050781,-72.58270263671875,-67.80642700195312,,,,,,,,,,
0,2022-09-06 17:38:30.4740,00:02,51,0,2022-09-06 17:38:30.5940,1662457110.594449,-0.013813550258132001,0.002251702701661996,-0.00533990430171788,0.024169921875,-0.031463623046875,-1.0174102783203125,95.41487121582031,-72.22978210449219,-67.72398376464844,,,,,,,,,,
0,2022-09-06 17:38:30.4740,00:02,51,0,2022-09-06 17:38:30.6110,1662457110.611125,-0.002960369867732081,-0.0044480116526503435,-0.008130897124120922,0.0209197998046875,-0.031097412109375,-1.01287841796875,95.57212829589844,-72.47523498535156,-67.81523132324219,,,,,,,,,,
0,2022-09-06 17:38:30.4740,00:02,51,0,2022-09-06 17:38:30.6280,1662457110.6279368,0.002358495461374173,-0.013851899777829142,-0.008968727603059851,0.020172119140625,-0.0316314697265625,-1.004180908203125,95.48138427734375,-72.24151611328125,-67.68894958496094,,,,,,,,,,
0,2022-09-06 17:38:30.4740,00:02,51,0,2022-09-06 17:38:30.6460,1662457110.6462321,0.0020743361730627186,-0.00974104431918283,-0.007596933325560035,0.0173797607421875,-0.0324554443359375,-0.99945068359375,95.48138427734375,-72.24151611328125,-67.68894958496094,,,,,,,,,,
0,2022-09-06 17:38:30.4740,00:02,51,0,2022-09-06 17:38:30.6780,1662457110.677609,-0.0003797667714452994,-0.012688897329791539,-0.003303651332243295,0.017974853515625,-0.032379150390625,-1.001556396484375,95.55033874511719,-72.43165588378906,-67.88087463378906,,,,,,,,,,
0,2022-09-06 17:38:30.4740,00:02,51,0,2022-09-06 17:38:30.6940,1662457110.694354,-0.0022770027320177487,-0.00419581029741984,-0.006008624051436777,0.02044677734375,-0.0327301025390625,-1.0031890869140625,95.48118591308594,-72.27569580078125,-68.01583862304688,,,,,,,,,,
0,2022-09-06 17:38:30.4740,00:02,51,0,2022-09-06 17:38:30.7120,1662457110.711616,0.00044368263760720107,-0.007497331100791071,-0.007776164066922367,0.0195770263671875,-0.0321044921875,-1.00347900390625,95.37567138671875,-72.63088989257812,-67.14260864257812,,,,,,,,,,
0,2022-09-06 17:38:30.4740,00:02,51,0,2022-09-06 17:38:30.7280,1662457110.7279449,0.00044368263760720107,-0.007497331100791071,-0.007776164066922367,0.0204925537109375,-0.0318450927734375,-1.0040435791015625,95.430419921875,-72.25711059570312,-67.97006225585938,,,,,,,,,,
0,2022-09-06 17:38:30.4740,00:02,51,0,2022-09-06 17:38:30.7440,1662457110.744446,-0.0005603290933526718,-0.01003079624578345,-0.006066148330982489,0.01922607421875,-0.0324249267578125,-1.0033111572265625,95.430419921875,-72.25711059570312,-67.97006225585938,,,,,,,,,,
0,2022-09-06 17:38:30.4740,00:02,51,0,2022-09-06 17:38:30.7780,1662457110.777817,-0.002981408840343707,-0.005299956885366692,-0.007081345338520694,0.0175323486328125,-0.031524658203125,-1.0039520263671875,95.40663146972656,-72.54678344726562,-67.62615966796875,,,,,,,,,,
0,2022-09-06 17:38:30.4740,00:02,51,0,2022-09-06 17:38:30.7950,1662457110.794691,-0.0030266825788750544,-0.008755408399744504,-0.007761250364817924,0.0165557861328125,-0.03131103515625,-1.0034637451171875,95.41902160644531,-72.62577819824219,-67.72474670410156,,,,,,,,,,
0,2022-09-06 17:38:30.4740,00:02,51,0,2022-09-06 17:38:30.8110,1662457110.811188,-0.0030266825788750544,-0.008755408399744504,-0.007761250364817924,0.0165557861328125,-0.03131103515625,-1.0034637451171875,95.3773193359375,-72.49751281738281,-67.36068725585938,,,,,,,,,,
0,2022-09-06 17:38:30.4740,00:02,51,0,2022-09-06 17:38:30.8280,1662457110.827781,-0.0007225156037384973,-0.007635016529148168,-0.006403837157204536,0.0204010009765625,-0.032745361328125,-1.00360107421875,95.41392517089844,-72.51408386230469,-67.40609741210938,,,,,,,,,,
0,2022-09-06 17:38:30.4740,00:02,51,0,2022-09-06 17:38:30.8440,1662457110.844469,-0.0014037522105807664,-0.010602576931823463,-0.007869108388966133,0.0196075439453125,-0.0331878662109375,-1.00335693359375,95.41392517089844,-72.51408386230469,-67.40609741210938,,,,,,,,,,
0,2022-09-06 17:38:30.4740,00:02,51,0,2022-09-06 17:38:30.8630,1662457110.862966,-0.0011318434632836762,-0.008436095385044003,-0.006883206153418799,0.0194854736328125,-0.0326995849609375,-1.0037384033203125,95.50103759765625,-72.62594604492188,-67.00431823730469,,,,,,,,,,
0,2022-09-06 17:38:30.4740,00:02,51,0,2022-09-06 17:38:30.8940,1662457110.89447,-0.0016386430187257553,-0.0074816184503596036,-0.006345513929331801,0.019317626953125,-0.032073974609375,-1.003570556640625,95.60162353515625,-72.46675109863281,-64.82675170898438,,,,,,,,,,
0,2022-09-06 17:38:30.4740,00:02,51,0,2022-09-06 17:38:30.9110,1662457110.9111161,-0.0003158509052833977,-0.007468835277127223,-0.0077945398784439145,0.0189361572265625,-0.031982421875,-1.0042266845703125,95.42820739746094,-72.51318359375,-67.07575988769531,,,,,,,,,,
0,2022-09-06 17:38:30.4740,00:02,51,0,2022-09-06 17:38:30.9280,1662457110.927753,-0.0030434604937425534,-0.008098672874930964,-0.00605576200273118,0.01904296875,-0.0330047607421875,-1.0035552978515625,95.34930419921875,-72.36637878417969,-66.44992065429688,,,,,,,,,,
0,2022-09-06 17:38:30.4740,00:02,51,0,2022-09-06 17:38:30.9440,1662457110.944497,-0.0030434604937425534,-0.008098672874930964,-0.00605576200273118,0.0187530517578125,-0.031707763671875,-1.0033416748046875,95.34930419921875,-72.36637878417969,-66.44992065429688,,,,,,,,,,
0,2022-09-06 17:38:30.4740,00:02,51,0,2022-09-06 17:38:30.9610,1662457110.961344,-0.001125718192776494,-0.010897122548386227,-0.007227286566257036,0.0187530517578125,-0.031707763671875,-1.0033416748046875,95.54092407226562,-72.30833435058594,-68.21356201171875,,,,,,,,,,
0,2022-09-06 17:38:30.4740,00:02,51,0,2022-09-06 17:38:30.9800,1662457110.979631,-0.0007081345338520695,-0.009379653359259077,-0.006114351546712923,0.0183868408203125,-0.0320892333984375,-1.0031890869140625,95.45906066894531,-72.48594665527344,-68.12448120117188,,,,,,,,,,
0,2022-09-06 17:38:30.4740,00:02,51,0,2022-09-06 17:38:31.0110,1662457111.010602,-0.0005406217012860853,-0.007744738766059433,-0.006067746227636536,0.0190887451171875,-0.0322113037109375,-1.00408935546875,95.39805603027344,-72.46005249023438,-68.23977661132812,,,,,,,,,,
0,2022-09-06 17:38:30.4740,00:02,51,0,2022-09-06 17:38:31.0280,1662457111.027608,-0.0005406217012860853,-0.007744738766059433,-0.006067746227636536,0.019622802734375,-0.032440185546875,-1.0048828125,95.48789978027344,-72.63778686523438,-68.10946655273438,,,,,,,,,,
0,2022-09-06 17:38:30.4740,00:02,51,0,2022-09-06 17:38:31.0440,1662457111.044077,-0.004133226011802977,-0.01302605352379557,-0.0069993199769462534,0.020111083984375,-0.0326080322265625,-1.0036468505859375,95.48789978027344,-72.63778686523438,-68.10946655273438,,,,,,,,,,
0,2022-09-06 17:38:30.4740,00:02,51,0,2022-09-06 17:38:31.0610,1662457111.0608811,-0.000985902235547334,-0.010761567648901193,-0.0057465690001729805,0.0193328857421875,-0.0320281982421875,-1.0037994384765625,95.46139526367188,-72.36534118652344,-67.81816101074219,,,,,,,,,,
0,2022-09-06 17:38:30.4740,00:02,51,0,2022-09-06 17:38:31.0790,1662457111.0788488,-0.0009004147645557904,-0.010124273200045232,-0.004944691195950122,0.0193328857421875,-0.0320281982421875,-1.0037994384765625,95.36906433105469,-72.08120727539062,-68.21772766113281,,,,,,,,,,
0,2022-09-06 17:38:30.4740,00:02,51,0,2022-09-06 17:38:31.1110,1662457111.110612,-0.0014687333411787,-0.009630523133944541,-0.006267483309392479,0.01922607421875,-0.0320892333984375,-1.0034637451171875,95.55435180664062,-72.65570068359375,-68.20042419433594,,,,,,,,,,
0,2022-09-06 17:38:30.4740,00:02,51,0,2022-09-06 17:38:31.1270,1662457111.1274838,-0.0002125202549883232,-0.008230499348889886,-0.0061244715588552245,0.019622802734375,-0.031707763671875,-1.0029754638671875,95.51756286621094,-72.42904663085938,-67.64984130859375,,,,,,,,,,
0,2022-09-06 17:38:30.4740,00:02,51,0,2022-09-06 17:38:31.1440,1662457111.144032,-0.0006929545156386178,-0.009781258051643026,-0.009889382391900244,0.0188751220703125,-0.033294677734375,-1.0042877197265625,95.51756286621094,-72.42904663085938,-67.64984130859375,,,,,,,,,,
0,2022-09-06 17:38:30.4740,00:02,51,0,2022-09-06 17:38:31.1610,1662457111.16076,-0.0030154973022967213,-0.010733338141346353,-0.006686664864970951,0.0194854736328125,-0.0319366455078125,-1.0032196044921875,95.32330322265625,-72.37547302246094,-67.67410278320312,,,,,,,,,,
0,2022-09-06 17:38:30.4740,00:02,51,0,2022-09-06 17:38:31.1770,1662457111.1773481,-0.0014112090616329883,-0.007261907660428067,-0.004738562527577988,0.0185546875,-0.0316619873046875,-1.003936767578125,95.59770202636719,-72.33639526367188,-68.03549194335938,,,,,,,,,,
0,2022-09-06 17:38:30.4740,00:02,51,0,2022-09-06 17:38:31.1960,1662457111.1957421,-0.0010335728190597523,-0.011142666000891532,-0.007684285009314634,0.018798828125,-0.0316925048828125,-1.003173828125,95.54499816894531,-72.64706420898438,-67.89289855957031,,,,,,,,,,
0,2022-09-06 17:38:30.4740,00:02,51,0,2022-09-06 17:38:31.2280,1662457111.2277188,-9.081379317170202e-05,-0.009233712131522735,-0.00588771653794718,0.01922607421875,-0.032989501953125,-1.004241943359375,95.61459350585938,-72.43959045410156,-67.81498718261719,,,,,,,,,,
0,2022-09-06 17:38:30.4740,00:02,51,0,2022-09-06 17:38:31.2440,1662457111.2440882,-9.081379317170202e-05,-0.009233712131522735,-0.00588771653794718,0.01922607421875,-0.032989501953125,-1.004241943359375,95.61459350585938,-72.43959045410156,-67.81498718261719,,,,,,,,,,
0,2022-09-06 17:38:30.4740,00:02,51,0,2022-09-06 17:38:31.2610,1662457111.260851,-0.0012090751348959742,-0.008966330758078778,-0.00671249752754472,0.0190277099609375,-0.032562255859375,-1.003204345703125,95.52336120605469,-72.44776916503906,-67.76472473144531,,,,,,,,,,
0,2022-09-06 17:38:30.4740,00:02,51,0,2022-09-06 17:38:31.2770,1662457111.277427,-0.0006751113363350869,-0.010227870166449314,-0.004823783682460524,0.01959228515625,-0.0320587158203125,-1.0034942626953125,95.57978820800781,-72.74494934082031,-67.37742614746094,,,,,,,,,,
0,2022-09-06 17:38:30.4740,00:02,51,0,2022-09-06 17:38:31.2940,1662457111.294177,-0.0026136262938037643,-0.005502090812103706,-0.005466138137387637,0.019012451171875,-0.03228759765625,-1.00439453125,95.52081298828125,-72.77442932128906,-67.13888549804688,,,,,,,,,,
0,2022-09-06 17:38:30.4740,00:02,51,0,2022-09-06 17:38:31.3270,1662457111.327198,-0.0015811187391800436,-0.008477108065831223,-0.006020075644124118,0.019317626953125,-0.03228759765625,-1.0036773681640625,95.37940979003906,-72.05278015136719,-67.53585815429688,,,,,,,,,,
0,2022-09-06 17:38:30.4740,00:02,51,0,2022-09-06 17:38:31.3440,1662457111.3439631,-0.00356464111907106,-0.009248093201409163,-0.007133276979777239,0.0199737548828125,-0.031707763671875,-1.0033111572265625,95.37940979003906,-72.05278015136719,-67.53585815429688,,,,,,,,,,
0,2022-09-06 17:38:30.4740,00:02,51,0,2022-09-06 17:38:31.3610,1662457111.3609571,-0.0014751249277948901,-0.007190801259322951,-0.00419581029741984,0.0189056396484375,-0.032073974609375,-1.003662109375,95.52926635742188,-72.45787048339844,-67.83714294433594,,,,,,,,,,
0,2022-09-06 17:38:30.4740,00:02,51,0,2022-09-06 17:38:31.3770,1662457111.3774729,-0.0009901632932914608,-0.011550662279891672,-0.006114085230603915,0.0189056396484375,-0.032073974609375,-1.003662109375,95.69883728027344,-72.60174560546875,-67.99482727050781,,,,,,,,,,
0,2022-09-06 17:38:30.4740,00:02,51,0,2022-09-06 17:38:31.3940,1662457111.394071,-0.0009901632932914608,-0.011550662279891672,-0.006114085230603915,0.0189056396484375,-0.032073974609375,-1.003662109375,95.60453796386719,-72.3297119140625,-68.26106262207031,,,,,,,,,,
0,2022-09-06 17:38:30.4740,00:02,51,0,2022-09-06 17:38:31.4120,1662457111.4120321,0.0004740426740341044,-0.009590309401484344,-0.008263788862515876,0.0195465087890625,-0.0321807861328125,-1.00341796875,95.44891357421875,-72.20460510253906,-67.84819030761719,,,,,,,,,,
0,2022-09-06 17:38:30.4740,00:02,51,0,2022-09-06 17:38:31.4440,1662457111.444073,-0.003318032402129723,-0.01043879252478359,-0.006870955612404434,0.0192108154296875,-0.031524658203125,-1.0041656494140625,95.61433410644531,-72.22833251953125,-67.84111022949219,,,,,,,,,,
0,2022-09-06 17:38:30.4740,00:02,51,0,2022-09-06 17:38:31.4610,1662457111.461036,-4.953479627547383e-05,-0.010483000998878906,-0.005625927802792391,0.0188446044921875,-0.0328369140625,-1.0041656494140625,95.61752319335938,-72.52421569824219,-67.09477233886719,,,,,,,,,,
0,2022-09-06 17:38:30.4740,00:02,51,0,2022-09-06 17:38:31.4780,1662457111.477635,-0.0009012137128828142,-0.007295729806272073,-0.008161257160547825,0.0196075439453125,-0.0319671630859375,-1.0043792724609375,95.66387939453125,-72.53729248046875,-67.75767517089844,,,,,,,,,,
0,2022-09-06 17:38:30.4740,00:02,51,0,2022-09-06 17:38:31.4940,1662457111.4940472,-0.003337473478087301,-0.010141850063239755,-0.007013434730723674,0.0190887451171875,-0.0319671630859375,-1.0045928955078125,95.501953125,-72.14448547363281,-67.91317749023438,,,,,,,,,,
0,2022-09-06 17:38:30.4740,00:02,51,0,2022-09-06 17:38:31.5110,1662457111.510664,-0.0023742081118056407,-0.008292551002288732,-0.005794772215903414,0.019866943359375,-0.0319671630859375,-1.003570556640625,95.6102294921875,-72.32746887207031,-68.0943603515625,,,,,,,,,,
0,2022-09-06 17:38:30.4740,00:02,51,0,2022-09-06 17:38:31.5290,1662457111.5289679,-0.0036685044015841504,-0.009241168982574956,-0.008874185384362037,0.018798828125,-0.03216552734375,-1.0042266845703125,95.54287719726562,-72.41244506835938,-68.15888977050781,,,,,,,,,,
0,2022-09-06 17:38:30.4740,00:02,51,0,2022-09-06 17:38:31.5610,1662457111.5608191,-0.0029696909315473584,-0.010123474251718207,-0.005032042879704721,0.0189208984375,-0.0317230224609375,-1.0046844482421875,95.4676513671875,-72.14630126953125,-67.50654602050781,,,,,,,,,,
0,2022-09-06 17:38:30.4740,00:02,51,0,2022-09-06 17:38:31.5770,1662457111.577376,-0.001534779736212665,-0.007304251921760326,-0.005954828197417177,0.0194091796875,-0.0318603515625,-1.0029144287109375,95.51065063476562,-72.25712585449219,-67.17489624023438,,,,,,,,,,
0,2022-09-06 17:38:30.4740,00:02,51,0,2022-09-06 17:38:31.5940,1662457111.594017,-0.0016106798272799232,-0.009922938221635242,-0.006487726731542032,0.018463134765625,-0.0315399169921875,-1.004669189453125,95.52261352539062,-72.44029235839844,-67.972412109375,,,,,,,,,,
0,2022-09-06 17:38:30.4740,00:02,51,0,2022-09-06 17:38:31.6110,1662457111.610831,-0.0017896442525332482,-0.01105584694935495,-0.004330566248577849,0.0199432373046875,-0.032073974609375,-1.004180908203125,95.521240234375,-72.44482421875,-67.98793029785156,,,,,,,,,,
0,2022-09-06 17:38:30.4740,00:02,51,0,2022-09-06 17:38:31.6270,1662457111.627382,-0.0017896442525332482,-0.01105584694935495,-0.004330566248577849,0.018707275390625,-0.031341552734375,-1.003692626953125,95.56135559082031,-72.32891845703125,-68.06948852539062,,,,,,,,,,
0,2022-09-06 17:38:30.4740,00:02,51,0,2022-09-06 17:38:31.6600,1662457111.660476,-0.002540921996044601,-0.00899962027170477,-0.008348477385180396,0.01910400390625,-0.0320892333984375,-1.0049285888671875,95.43852233886719,-72.29075622558594,-67.29466247558594,,,,,,,,,,
0,2022-09-06 17:38:30.4740,00:02,51,0,2022-09-06 17:38:31.6770,1662457111.677477,-0.0017206683803001957,-0.010656372785843063,-0.007765777738671059,0.01910400390625,-0.0320892333984375,-1.0049285888671875,95.57359313964844,-72.294921875,-67.78706359863281,,,,,,,,,,
0,2022-09-06 17:38:30.4740,00:02,51,0,2022-09-06 17:38:31.6940,1662457111.693892,-0.0017206683803001957,-0.010656372785843063,-0.007765777738671059,0.01910400390625,-0.0320892333984375,-1.0049285888671875,95.479248046875,-72.55511474609375,-67.86436462402344,,,,,,,,,,
0,2022-09-06 17:38:30.4740,00:02,51,0,2022-09-06 17:38:31.7110,1662457111.710969,0.00016298545871284937,-0.00711783064545478,-0.006152168434192048,0.0186767578125,-0.0324249267578125,-1.0034942626953125,95.52066040039062,-72.19610595703125,-67.86497497558594,,,,,,,,,,
0,2022-09-06 17:38:30.4740,00:02,51,0,2022-09-06 17:38:31.7280,1662457111.727607,-0.003282346043522661,-0.009153817298820357,-0.00409567544043286,0.019317626953125,-0.0320281982421875,-1.00372314453125,95.48406982421875,-72.400390625,-67.92999267578125,,,,,,,,,,
0,2022-09-06 17:38:30.4740,00:02,51,0,2022-09-06 17:38:31.7460,1662457111.745506,-0.0003097256347762154,-0.006777478658142653,-0.007569502766332219,0.01959228515625,-0.031494140625,-1.004241943359375,95.64828491210938,-72.44284057617188,-67.48291015625,,,,,,,,,,
0,2022-09-06 17:38:30.4740,00:02,51,0,2022-09-06 17:38:31.7770,1662457111.777482,-0.00022503711211169564,-0.012053999725916647,-0.0077380808633342344,0.0190887451171875,-0.03277587890625,-1.0037841796875,95.56080627441406,-72.41181945800781,-67.96212768554688,,,,,,,,,,
0,2022-09-06 17:38:30.4740,00:02,51,0,2022-09-06 17:38:31.7940,1662457111.793956,-0.0030525152414488227,-0.00780918726443935,-0.006899185119959275,0.0189361572265625,-0.030975341796875,-1.004150390625,95.63658142089844,-72.30610656738281,-67.17768859863281,,,,,,,,,,
0,2022-09-06 17:38:30.4740,00:02,51,0,2022-09-06 17:38:31.8110,1662457111.810771,-0.000804008333094922,-0.008880843287087235,-0.006279733850406844,0.0188140869140625,-0.0322113037109375,-1.0043182373046875,95.57427978515625,-72.29252624511719,-67.44471740722656,,,,,,,,,,
0,2022-09-06 17:38:30.4740,00:02,51,0,2022-09-06 17:38:31.8270,1662457111.827386,-0.000804008333094922,-0.008880843287087235,-0.006279733850406844,0.0188140869140625,-0.0322113037109375,-1.0043182373046875,95.62113952636719,-72.19062805175781,-67.62673950195312,,,,,,,,,,
0,2022-09-06 17:38:30.4740,00:02,51,0,2022-09-06 17:38:31.8440,1662457111.8440418,-0.0015409050067198473,-0.011234811374608274,-0.008163387689419889,0.018951416015625,-0.032623291015625,-1.0041656494140625,95.69779968261719,-72.6944580078125,-67.24107360839844,,,,,,,,,,
0,2022-09-06 17:38:30.4740,00:02,51,0,2022-09-06 17:38:31.8620,1662457111.862333,0.00043223104491986036,-0.008363124771175831,-0.004886101651968378,0.0186004638671875,-0.031829833984375,-1.002685546875,95.69779968261719,-72.6944580078125,-67.24107360839844,,,,,,,,,,
0,2022-09-06 17:38:30.4740,00:02,51,0,2022-09-06 17:38:31.8940,1662457111.894023,-1.464738599543581e-05,-0.008464324892598843,-0.007345264602547547,0.01898193359375,-0.0321807861328125,-1.0038299560546875,95.63815307617188,-72.61907958984375,-67.04928588867188,,,,,,,,,,
0,2022-09-06 17:38:30.4740,00:02,51,0,2022-09-06 17:38:31.9110,1662457111.910915,-0.0024317323913513526,-0.007069627429724346,-0.0083519394945975,0.019073486328125,-0.0321044921875,-1.0034027099609375,95.66921997070312,-72.53860473632812,-67.26443481445312,,,,,,,,,,
0,2022-09-06 17:38:30.4740,00:02,51,0,2022-09-06 17:38:31.9270,1662457111.927452,-0.0024317323913513526,-0.007069627429724346,-0.0083519394945975,0.0191192626953125,-0.0320281982421875,-1.0038604736328125,95.57365417480469,-72.37687683105469,-67.48098754882812,,,,,,,,,,
0,2022-09-06 17:38:30.4740,00:02,51,0,2022-09-06 17:38:31.9430,1662457111.942929,-0.0021198762277030735,-0.009226255280470512,-0.00666376167959627,0.0182952880859375,-0.0322113037109375,-1.0047607421875,95.57365417480469,-72.37687683105469,-67.48098754882812,,,,,,,,,,
0,2022-09-06 17:38:30.4740,00:02,51,0,2022-09-06 17:38:31.9610,1662457111.9609761,-0.0004705805646170014,-0.0087956221322047,-0.005323925335177405,0.0188751220703125,-0.032379150390625,-1.0047607421875,95.69241333007812,-72.58177185058594,-66.1282958984375,,,,,,,,,,
0,2022-09-06 17:38:30.4740,00:02,51,0,2022-09-06 17:38:31.9790,1662457111.97942,-0.0010165285880832451,-0.008247543579866392,-0.00802463699662676,0.0188751220703125,-0.032379150390625,-1.0047607421875,95.76263427734375,-72.92955017089844,-66.92015075683594,,,,,,,,,,
0,2022-09-06 17:38:30.4740,00:02,51,0,2022-09-06 17:38:32.0110,1662457112.0106921,-0.0008018778042228587,-0.011775166759785351,-0.007475226863743413,0.01922607421875,-0.031402587890625,-1.0042266845703125,95.52610778808594,-72.22198486328125,-68.16712951660156,,,,,,,,,,
0,2022-09-06 17:38:30.4740,00:02,51,0,2022-09-06 17:38:32.0270,1662457112.027495,-0.000678307129643182,-0.011901400595455108,-0.005975867170028803,0.0189666748046875,-0.0312957763671875,-1.005218505859375,95.57058715820312,-72.775390625,-67.84707641601562,,,,,,,,,,
0,2022-09-06 17:38:30.4740,00:02,51,0,2022-09-06 17:38:32.0440,1662457112.0441399,-0.003264236548110122,-0.009162073098199603,-0.003911917325217393,0.01904296875,-0.0318756103515625,-1.0048675537109375,95.62513732910156,-72.68290710449219,-67.81121826171875,,,,,,,,,,
0,2022-09-06 17:38:30.4740,00:02,51,0,2022-09-06 17:38:32.0610,1662457112.060676,0.000227167640983759,-0.011023889016273998,-0.006582801582457861,0.01885986328125,-0.032684326171875,-1.004119873046875,95.62513732910156,-72.68290710449219,-67.81121826171875,,,,,,,,,,
0,2022-09-06 17:38:30.4740,00:02,51,0,2022-09-06 17:38:32.0770,1662457112.077415,-0.0020780645985888297,-0.011495002213109016,-0.007203318116446323,0.0195159912109375,-0.0318145751953125,-1.004669189453125,95.53652954101562,-72.74951171875,-67.60740661621094,,,,,,,,,,
0,2022-09-06 17:38:30.4740,00:02,51,0,2022-09-06 17:38:32.1110,1662457112.1108031,0.0002649845284628842,-0.012540825573183133,-0.006341519187696682,0.0195770263671875,-0.0315399169921875,-1.0057220458984375,95.54005432128906,-72.74880981445312,-67.01811218261719,,,,,,,,,,
0,2022-09-06 17:38:30.4740,00:02,51,0,2022-09-06 17:38:32.1270,1662457112.127435,0.0002649845284628842,-0.012540825573183133,-0.006341519187696682,0.0195770263671875,-0.0315399169921875,-1.0057220458984375,95.73275756835938,-72.57290649414062,-67.77822875976562,,,,,,,,,,
0,2022-09-06 17:38:30.4740,00:02,51,0,2022-09-06 17:38:32.1440,1662457112.1438808,0.007582552255673607,-0.020593159445146718,-0.005471464459567795,0.01812744140625,-0.0337677001953125,-1.0009918212890625,95.55844116210938,-72.72718811035156,-67.51936340332031,,,,,,,,,,
0,2022-09-06 17:38:30.4740,00:02,51,0,2022-09-06 17:38:32.1610,1662457112.16063,0.0039555931670946926,-0.019192869343983055,-0.006559099448756156,0.0176239013671875,-0.034637451171875,-0.996612548828125,95.55844116210938,-72.72718811035156,-67.51936340332031,,,,,,,,,,
0,2022-09-06 17:38:30.4740,00:02,51,0,2022-09-06 17:38:32.1770,1662457112.1774879,-0.0003230414402266116,-0.014525413217510181,-0.005287972660461335,0.0177154541015625,-0.032745361328125,-0.997833251953125,95.80194091796875,-72.782958984375,-67.50335693359375,,,,,,,,,,
0,2022-09-06 17:38:30.4740,00:02,51,0,2022-09-06 17:38:32.1960,1662457112.195596,0.0036410738423563343,-0.015042066468985553,-0.006076800975342806,0.0180816650390625,-0.03167724609375,-1.000213623046875,95.81101989746094,-72.82499694824219,-67.83456420898438,,,,,,,,,,
0,2022-09-06 17:38:30.4740,00:02,51,0,2022-09-06 17:38:32.2270,1662457112.2273831,0.0013480921437981103,-0.012271579986976122,-0.005920473419355155,0.0186767578125,-0.03216552734375,-1.001373291015625,95.62252807617188,-72.21832275390625,-68.0860595703125,,,,,,,,,,
0,2022-09-06 17:38:30.4740,00:02,51,0,2022-09-06 17:38:32.2440,1662457112.2440739,-0.0016796556995129755,-0.010428406196532281,-0.008778311585119184,0.0194244384765625,-0.0316925048828125,-1.0046844482421875,95.65983581542969,-72.46556091308594,-67.310546875,,,,,,,,,,
0,2022-09-06 17:38:30.4740,00:02,51,0,2022-09-06 17:38:32.2610,1662457112.260683,-0.004479170637404271,-0.007741809288860345,-0.006245112756235813,0.019561767578125,-0.0319366455078125,-1.0051422119140625,95.65983581542969,-72.46556091308594,-67.310546875,,,,,,,,,,
0,2022-09-06 17:38:30.4740,00:02,51,0,2022-09-06 17:38:32.2780,1662457112.277533,-0.004479170637404271,-0.007741809288860345,-0.006245112756235813,0.019561767578125,-0.0319366455078125,-1.0051422119140625,95.71229553222656,-72.67927551269531,-67.50369262695312,,,,,,,,,,
0,2022-09-06 17:38:30.4740,00:02,51,0,2022-09-06 17:38:32.2940,1662457112.29406,-0.0007488808985302818,-0.005023520764216467,-0.006632070062624327,0.019561767578125,-0.0319366455078125,-1.0051422119140625,95.70068359375,-72.6478271484375,-67.5919189453125,,,,,,,,,,
0,2022-09-06 17:38:30.4740,00:02,51,0,2022-09-06 17:38:32.3130,1662457112.3125439,-0.003037867855453387,-0.006292783339748232,-0.00527971686108209,0.0194854736328125,-0.0323638916015625,-1.005279541015625,95.63887023925781,-72.38348388671875,-67.9248046875,,,,,,,,,,
0,2022-09-06 17:38:30.4740,00:02,51,0,2022-09-06 17:38:32.3440,1662457112.344016,8.522115488253562e-06,-0.007686149222077689,-0.007940481106180257,0.0194549560546875,-0.0314788818359375,-1.00396728515625,95.65530395507812,-72.22920227050781,-66.95907592773438,,,,,,,,,,
0,2022-09-06 17:38:30.4740,00:02,51,0,2022-09-06 17:38:32.3610,1662457112.36061,-0.002024002428460221,-0.010741061308507584,-0.0066768111689376585,0.0183258056640625,-0.0321807861328125,-1.00445556640625,95.65530395507812,-72.22920227050781,-66.95907592773438,,,,,,,,,,
0,2022-09-06 17:38:30.4740,00:02,51,0,2022-09-06 17:38:32.3770,1662457112.3774,-0.004905542727925957,-0.011031345867326221,-0.005356948532694388,0.018829345703125,-0.031768798828125,-1.004241943359375,95.58937072753906,-72.3740234375,-66.86245727539062,,,,,,,,,,
0,2022-09-06 17:38:30.4740,00:02,51,0,2022-09-06 17:38:32.3940,1662457112.394109,-0.0018900454256292353,-0.010156231133126184,-0.007563910128043052,0.0192718505859375,-0.031890869140625,-1.0055084228515625,95.66119384765625,-72.18478393554688,-67.93670654296875,,,,,,,,,,
0,2022-09-06 17:38:30.4740,00:02,51,0,2022-09-06 17:38:32.4110,1662457112.410726,-0.0019012307022075682,-0.01170485930700726,-0.005429386514344543,0.0197296142578125,-0.03204345703125,-1.004486083984375,95.69122314453125,-72.68791198730469,-67.8135986328125,,,,,,,,,,
0,2022-09-06 17:38:30.4740,00:02,51,0,2022-09-06 17:38:32.4440,1662457112.443668,-0.000601341774139892,-0.007635549161366184,-0.005848834386032023,0.0193634033203125,-0.033294677734375,-1.00421142578125,95.70948791503906,-72.6834716796875,-67.69515991210938,,,,,,,,,,
0,2022-09-06 17:38:30.4740,00:02,51,0,2022-09-06 17:38:32.4610,1662457112.460882,-0.0012037488127158156,-0.010307232366933676,-0.006172674774585658,0.018768310546875,-0.0317535400390625,-1.00469970703125,95.70948791503906,-72.6834716796875,-67.69515991210938,,,,,,,,,,
0,2022-09-06 17:38:30.4740,00:02,51,0,2022-09-06 17:38:32.4770,1662457112.477443,-0.002108158318906725,-0.007264304505409138,-0.006360161315327237,0.01873779296875,-0.0320892333984375,-1.004150390625,95.68310546875,-72.55050659179688,-67.61985778808594,,,,,,,,,,
0,2022-09-06 17:38:30.4740,00:02,51,0,2022-09-06 17:38:32.4940,1662457112.494007,-0.0013062805146838664,-0.010004697267100675,-0.005138835639416898,0.0190277099609375,-0.0322265625,-1.004791259765625,95.6351318359375,-72.71603393554688,-65.99452209472656,,,,,,,,,,
0,2022-09-06 17:38:30.4740,00:02,51,0,2022-09-06 17:38:32.5110,1662457112.510826,-0.001307345779119898,-0.007197725478157157,-0.0069982547125102225,0.0187530517578125,-0.03155517578125,-1.0050811767578125,95.63656616210938,-72.68467712402344,-68.04965209960938,,,,,,,,,,
0,2022-09-06 17:38:30.4740,00:02,51,0,2022-09-06 17:38:32.5290,1662457112.5288491,-0.001307345779119898,-0.007197725478157157,-0.0069982547125102225,0.0183258056640625,-0.0325775146484375,-1.0040130615234375,95.60102844238281,-72.25129699707031,-68.17286682128906,,,,,,,,,,
0,2022-09-06 17:38:30.4740,00:02,51,0,2022-09-06 17:38:32.5610,1662457112.560855,-0.0006833671357143325,-0.009822270732430246,-0.006967362043865303,0.0185699462890625,-0.0311737060546875,-1.0034332275390625,95.55441284179688,-72.41209411621094,-67.892578125,,,,,,,,,,
0,2022-09-06 17:38:30.4740,00:02,51,0,2022-09-06 17:38:32.5780,1662457112.578043,-0.0006833671357143325,-0.009822270732430246,-0.006967362043865303,0.0185699462890625,-0.0311737060546875,-1.0034332275390625,95.58216857910156,-72.63633728027344,-67.60018920898438,,,,,,,,,,
0,2022-09-06 17:38:30.4740,00:02,51,0,2022-09-06 17:38:32.5930,1662457112.5932488,-0.00037603834591918846,-0.010766893971081352,-0.007052583198747839,0.0185699462890625,-0.0311737060546875,-1.0034332275390625,95.72285461425781,-72.46983337402344,-67.19956970214844,,,,,,,,,,
0,2022-09-06 17:38:30.4740,00:02,51,0,2022-09-06 17:38:32.6100,1662457112.609803,-0.0015496934383171087,-0.009633718927252637,-0.003883687817662553,0.0194549560546875,-0.0322418212890625,-1.005096435546875,95.59222412109375,-72.50335693359375,-67.39372253417969,,,,,,,,,,
0,2022-09-06 17:38:30.4740,00:02,51,0,2022-09-06 17:38:32.6270,1662457112.627284,-0.000489489008356564,-0.010540791594533624,-0.007897071580411965,0.0187225341796875,-0.0322418212890625,-1.0044403076171875,95.70350646972656,-72.48268127441406,-67.88287353515625,,,,,,,,,,
0,2022-09-06 17:38:30.4740,00:02,51,0,2022-09-06 17:38:32.6460,1662457112.646457,-0.0012729910010578758,-0.008681638837549308,-0.004994225992225596,0.01849365234375,-0.032196044921875,-1.0045013427734375,95.63613891601562,-72.33700561523438,-66.98704528808594,,,,,,,,,,
0,2022-09-06 17:38:30.4740,00:02,51,0,2022-09-06 17:38:32.6750,1662457112.675333,0.00022876553763780656,-0.01006435207551845,-0.004758269919644575,0.0199127197265625,-0.0317840576171875,-1.004180908203125,95.69287109375,-72.53071594238281,-66.70565795898438,,,,,,,,,,
0,2022-09-06 17:38:30.4740,00:02,51,0,2022-09-06 17:38:32.6920,1662457112.6921391,-5.432848623761646e-05,-0.009525860903104427,-0.006441654044683661,0.0198822021484375,-0.032501220703125,-1.00360107421875,95.74227905273438,-72.675048828125,-67.44015502929688,,,,,,,,,,
0,2022-09-06 17:38:30.4740,00:02,51,0,2022-09-06 17:38:32.7110,1662457112.710957,-0.0021438446775137866,-0.010968228949491343,-0.0068882661594899496,0.0196990966796875,-0.0323028564453125,-1.0046844482421875,95.76390075683594,-72.94902038574219,-67.47091674804688,,,,,,,,,,
0,2022-09-06 17:38:30.4740,00:02,51,0,2022-09-06 17:38:32.7270,1662457112.727462,-0.0021438446775137866,-0.010968228949491343,-0.0068882661594899496,0.0196990966796875,-0.0323028564453125,-1.0046844482421875,95.65646362304688,-72.81315612792969,-67.98130798339844,,,,,,,,,,
0,2022-09-06 17:38:30.4740,00:02,51,0,2022-09-06 17:38:32.7440,1662457112.7441192,-0.0013339773900206905,-0.012729643694469751,-0.005698898416660562,0.0188446044921875,-0.0320281982421875,-1.0044708251953125,95.61634826660156,-72.42044067382812,-67.30126953125,,,,,,,,,,
0,2022-09-06 17:38:30.4740,00:02,51,0,2022-09-06 17:38:32.7770,1662457112.777355,-0.0009835053905662627,-0.012138688248581168,-0.007512777435113531,0.01922607421875,-0.031219482421875,-1.0043792724609375,95.76016235351562,-72.79719543457031,-66.97921752929688,,,,,,,,,,
0,2022-09-06 17:38:30.4740,00:02,51,0,2022-09-06 17:38:32.7940,1662457112.7940369,-0.0012668657305506936,-0.011083011192473758,-0.005899700762852536,0.018798828125,-0.03143310546875,-1.004638671875,95.79876708984375,-72.69316101074219,-67.89830017089844,,,,,,,,,,
0,2022-09-06 17:38:30.4740,00:02,51,0,2022-09-06 17:38:32.8110,1662457112.810751,-0.0005536711906274736,-0.008371646886664086,-0.007742075604969353,0.01934814453125,-0.0327911376953125,-1.0035247802734375,95.67027282714844,-72.74008178710938,-67.76220703125,,,,,,,,,,
0,2022-09-06 17:38:30.4740,00:02,51,0,2022-09-06 17:38:32.8270,1662457112.8273292,-0.0005536711906274736,-0.008371646886664086,-0.007742075604969353,0.0195159912109375,-0.0328521728515625,-1.0048370361328125,95.72514343261719,-72.77290344238281,-67.96688842773438,,,,,,,,,,
0,2022-09-06 17:38:30.4740,00:02,51,0,2022-09-06 17:38:32.8440,1662457112.844202,-0.0030402647004344583,-0.010739729727962544,-0.007243798165015528,0.019378662109375,-0.0316619873046875,-1.004547119140625,95.72618103027344,-72.77359008789062,-67.21629333496094,,,,,,,,,,
0,2022-09-06 17:38:30.4740,00:02,51,0,2022-09-06 17:38:32.8630,1662457112.862592,-0.001695368349944443,-0.009424927097790425,-0.00392390155012275,0.019683837890625,-0.032012939453125,-1.0049591064453125,95.61427307128906,-72.86018371582031,-66.84091186523438,,,,,,,,,,
0,2022-09-06 17:38:30.4740,00:02,51,0,2022-09-06 17:38:32.8940,1662457112.894052,-0.002605104178315511,-0.009259544794096504,-0.007408115204273417,0.019683837890625,-0.032012939453125,-1.0049591064453125,95.56388854980469,-72.81573486328125,-67.20918273925781,,,,,,,,,,
0,2022-09-06 17:38:30.4740,00:02,51,0,2022-09-06 17:38:32.9110,1662457112.910512,0.0001789644252533248,-0.008724515731099584,-0.005982258756644993,0.019134521484375,-0.03216552734375,-1.0054168701171875,95.57986450195312,-72.58589172363281,-67.24223327636719,,,,,,,,,,
0,2022-09-06 17:38:30.4740,00:02,51,0,2022-09-06 17:38:32.9270,1662457112.927474,-0.006468285655584454,-0.009628392605072478,-0.005440838107031883,0.01953125,-0.03253173828125,-1.0045013427734375,95.52876281738281,-72.52616882324219,-67.15574645996094,,,,,,,,,,
0,2022-09-06 17:38:30.4740,00:02,51,0,2022-09-06 17:38:32.9440,1662457112.944199,-0.0024458471451287724,-0.008770322101848946,-0.005314604271362128,0.0191192626953125,-0.0323333740234375,-1.0043792724609375,95.63381958007812,-72.72317504882812,-67.44041442871094,,,,,,,,,,
0,2022-09-06 17:38:30.4740,00:02,51,0,2022-09-06 17:38:32.9610,1662457112.9610438,-0.002143045729186763,-0.010077401564859837,-0.008256065695354647,0.0189208984375,-0.031951904296875,-1.0037689208984375,95.75991821289062,-72.78109741210938,-66.20631408691406,,,,,,,,,,
0,2022-09-06 17:38:30.4740,00:02,51,0,2022-09-06 17:38:32.9940,1662457112.993988,-0.0019955066047963733,-0.009867544470961593,-0.007269098195371281,0.0187225341796875,-0.0315399169921875,-1.0036773681640625,95.68470764160156,-72.84059143066406,-67.08560180664062,,,,,,,,,,
0,2022-09-06 17:38:30.4740,00:02,51,0,2022-09-06 17:38:33.0110,1662457113.0106459,-0.0019955066047963733,-0.009867544470961593,-0.007269098195371281,0.0187225341796875,-0.0315399169921875,-1.0036773681640625,95.58750915527344,-72.61854553222656,-66.94715881347656,,,,,,,,,,
0,2022-09-06 17:38:30.4740,00:02,51,0,2022-09-06 17:38:33.0270,1662457113.027453,-0.0013227921134423577,-0.008175371914325245,-0.006922620937551972,0.0189208984375,-0.032440185546875,-1.0054779052734375,95.57002258300781,-72.96412658691406,-67.0882568359375,,,,,,,,,,
0,2022-09-06 17:38:30.4740,00:02,51,0,2022-09-06 17:38:33.0440,1662457113.044067,-0.002582733625158845,-0.010707505478772585,-0.006943127277945582,0.019500732421875,-0.0317535400390625,-1.00323486328125,95.74546813964844,-72.5789794921875,-67.9698486328125,,,,,,,,,,
0,2022-09-06 17:38:30.4740,00:02,51,0,2022-09-06 17:38:33.0610,1662457113.060721,-0.002405899728777584,-0.009329852246874595,-0.005714877383201037,0.0182647705078125,-0.0311431884765625,-1.0047760009765625,95.72604370117188,-72.80244445800781,-67.43673706054688,,,,,,,,,,
0,2022-09-06 17:38:30.4740,00:02,51,0,2022-09-06 17:38:33.0770,1662457113.077332,0.0007608651234356383,-0.012154400899012634,-0.0065838668468938925,0.019287109375,-0.0319976806640625,-1.0043792724609375,95.72604370117188,-72.80244445800781,-67.43673706054688,,,,,,,,,,
0,2022-09-06 17:38:30.4740,00:02,51,0,2022-09-06 17:38:33.1110,1662457113.11057,-0.0006516755187423895,-0.009178318380849086,-0.006361759211981284,0.01873779296875,-0.0323333740234375,-1.0048980712890625,95.55303955078125,-72.71932983398438,-68.19131469726562,,,,,,,,,,
0,2022-09-06 17:38:30.4740,00:02,51,0,2022-09-06 17:38:33.1270,1662457113.127396,-0.0006516755187423895,-0.009178318380849086,-0.006361759211981284,0.01934814453125,-0.03265380859375,-1.0048828125,95.64437866210938,-72.78857421875,-67.71502685546875,,,,,,,,,,
0,2022-09-06 17:38:30.4740,00:02,51,0,2022-09-06 17:38:33.1440,1662457113.144347,-0.0035771579761944327,-0.010734936038000402,-0.006801979740171382,0.0192413330078125,-0.0322723388671875,-1.0033721923828125,95.61692810058594,-72.2373046875,-67.74575805664062,,,,,,,,,,
0,2022-09-06 17:38:30.4740,00:02,51,0,2022-09-06 17:38:33.1610,1662457113.16087,-0.0035771579761944327,-0.010734936038000402,-0.006801979740171382,0.0192413330078125,-0.0322723388671875,-1.0033721923828125,95.70196533203125,-72.45610046386719,-67.29335021972656,,,,,,,,,,
0,2022-09-06 17:38:30.4740,00:02,51,0,2022-09-06 17:38:33.1780,1662457113.177948,0.047313719926347746,-0.08196970150765788,0.003236007040555282,0.0077056884765625,-0.0343170166015625,-0.9686279296875,95.70196533203125,-72.45610046386719,-67.29335021972656,,,,,,,,,,
0,2022-09-06 17:38:30.4740,00:02,51,0,2022-09-06 17:38:33.1960,1662457113.195976,0.00292974351519617,-0.0072291507790200925,-0.007472563702653335,0.0077056884765625,-0.0343170166015625,-0.9686279296875,95.6258544921875,-72.5283203125,-67.62654113769531,,,,,,,,,,
0,2022-09-06 17:38:30.4740,00:02,51,0,2022-09-06 17:38:33.2280,1662457113.227557,-0.008157795051130722,-0.0021475731030398976,-0.0075101142740234515,0.0263519287109375,-0.0308837890625,-1.0267181396484375,95.70802307128906,-72.40699768066406,-67.4342041015625,,,,,,,,,,
1,2022-09-06 17:38:48.3680,00:12,60,0,2022-09-06 17:38:48.3920,1662457128.3915992,-0.0006636597436477462,-0.011462511647810049,-0.007638478638565271,0.0190887451171875,-0.0320587158203125,-1.0048980712890625,94.97853088378906,-72.63299560546875,-63.003021240234375,,,,,,,,,,
1,2022-09-06 17:38:48.3680,00:12,60,0,2022-09-06 17:38:48.4020,1662457128.401675,-0.0006636597436477462,-0.011462511647810049,-0.007638478638565271,0.019378662109375,-0.032623291015625,-1.005645751953125,95.05535888671875,-72.80113220214844,-58.62785339355469,,,,,,,,,,
1,2022-09-06 17:38:48.3680,00:12,60,0,2022-09-06 17:38:48.4260,1662457128.425906,-0.0036541233316977227,-0.0087687242051949,-0.006363357108635332,0.019256591796875,-0.032196044921875,-1.0051422119140625,94.95700073242188,-72.24099731445312,-63.975341796875,,,,,,,,,,
1,2022-09-06 17:38:48.3680,00:12,60,0,2022-09-06 17:38:48.4420,1662457128.441745,-0.0027915254546210574,-0.010298710251445423,-0.006273075947681645,0.0199432373046875,-0.0322113037109375,-1.0067138671875,94.958251953125,-72.70802307128906,-64.50721740722656,,,,,,,,,,
1,2022-09-06 17:38:48.3680,00:12,60,0,2022-09-06 17:38:48.4580,1662457128.45784,-0.00018695390852356252,-0.010090717370310233,-0.007488808985302818,0.0187835693359375,-0.0319061279296875,-1.0052337646484375,94.83160400390625,-72.19766235351562,-65.24685668945312,,,,,,,,,,
1,2022-09-06 17:38:48.3680,00:12,60,0,2022-09-06 17:38:48.4750,1662457128.47469,-0.0019720707872036758,-0.010791395053110081,-0.007119428542108827,0.0189208984375,-0.032318115234375,-1.00616455078125,94.83160400390625,-72.19766235351562,-65.24685668945312,,,,,,,,,,
1,2022-09-06 17:38:48.3680,00:12,60,0,2022-09-06 17:38:48.4910,1662457128.491374,0.00017816547692630104,-0.009880593960302981,-0.005924468160990274,0.018524169921875,-0.0323028564453125,-1.005523681640625,94.95445251464844,-72.48063659667969,-64.84346008300781,,,,,,,,,,
1,2022-09-06 17:38:48.3680,00:12,60,0,2022-09-06 17:38:48.5080,1662457128.508377,-0.0022045647503675936,-0.00757189961131329,-0.007620369143152732,0.0193023681640625,-0.0318756103515625,-1.005584716796875,95.03596496582031,-72.6541748046875,-65.59962463378906,,,,,,,,,,
1,2022-09-06 17:38:48.3680,00:12,60,0,2022-09-06 17:38:48.5250,1662457128.524833,-0.000615190211808304,-0.008812932679290215,-0.007644603909072453,0.0187835693359375,-0.032501220703125,-1.00518798828125,95.01075744628906,-72.53076171875,-65.14862060546875,,,,,,,,,,
1,2022-09-06 17:38:48.3680,00:12,60,0,2022-09-06 17:38:48.5420,1662457128.542129,0.00044341632149819316,-0.011089402779089947,-0.006294647552511287,0.01824951171875,-0.0324859619140625,-1.0055999755859375,94.95448303222656,-72.21922302246094,-65.03549194335938,,,,,,,,,,
1,2022-09-06 17:38:48.3680,00:12,60,0,2022-09-06 17:38:48.5580,1662457128.558152,-0.0019022959666435998,-0.009058209815686512,-0.007224357089057949,0.0191192626953125,-0.0335540771484375,-1.0058135986328125,95.04573059082031,-72.31588745117188,-64.9688720703125,,,,,,,,,,
1,2022-09-06 17:38:48.3680,00:12,60,0,2022-09-06 17:38:48.5750,1662457128.57476,-0.0013001552441766842,-0.010336527138924547,-0.0070142336790506975,0.019317626953125,-0.031829833984375,-1.0061187744140625,95.04573059082031,-72.31588745117188,-64.9688720703125,,,,,,,,,,
1,2022-09-06 17:38:48.3680,00:12,60,0,2022-09-06 17:38:48.5930,1662457128.593338,-0.0005065332393330711,-0.006978547320443636,-0.007046191612131649,0.01861572265625,-0.03228759765625,-1.005096435546875,95.13847351074219,-72.55429077148438,-64.07568359375,,,,,,,,,,
1,2022-09-06 17:38:48.3680,00:12,60,0,2022-09-06 17:38:48.6100,1662457128.6103082,-0.0017417073529118218,-0.006519950980731991,-0.008062720200214894,0.0193328857421875,-0.032196044921875,-1.0050048828125,95.01699829101562,-72.46751403808594,-64.75067138671875,,,,,,,,,,
1,2022-09-06 17:38:48.3680,00:12,60,0,2022-09-06 17:38:48.6250,1662457128.624758,-0.0022471753278088613,-0.007073355855250456,-0.008080563379518424,0.0188446044921875,-0.0327606201171875,-1.0057525634765625,94.99931335449219,-72.52777099609375,-64.72747802734375,,,,,,,,,,
1,2022-09-06 17:38:48.3680,00:12,60,0,2022-09-06 17:38:48.6410,1662457128.641337,-0.0014591459612544146,-0.010631871703814334,-0.005911418671648885,0.0185394287109375,-0.032623291015625,-1.0067291259765625,95.12632751464844,-72.68612670898438,-64.05319213867188,,,,,,,,,,
1,2022-09-06 17:38:48.3680,00:12,60,0,2022-09-06 17:38:48.6600,1662457128.6598039,-0.0019251991520182813,-0.009953031941953136,-0.0069993199769462534,0.018585205078125,-0.032135009765625,-1.0067291259765625,95.25712585449219,-72.60650634765625,-64.55131530761719,,,,,,,,,,
1,2022-09-06 17:38:48.3680,00:12,60,0,2022-09-06 17:38:48.6750,1662457128.674784,-0.0003097256347762154,-0.010501909442618468,-0.006915696718717766,0.01861572265625,-0.0330352783203125,-1.0052032470703125,95.23680114746094,-72.78509521484375,-63.825439453125,,,,,,,,,,
1,2022-09-06 17:38:48.3680,00:12,60,0,2022-09-06 17:38:48.6910,1662457128.6913052,6.205165339884625e-05,-0.00886885906218188,-0.007578024881820473,0.01959228515625,-0.032379150390625,-1.005889892578125,95.23680114746094,-72.78509521484375,-63.825439453125,,,,,,,,,,
1,2022-09-06 17:38:48.3680,00:12,60,0,2022-09-06 17:38:48.7110,1662457128.710962,-0.0024477113578918277,-0.011374627331837434,-0.0077545924620927255,0.0183563232421875,-0.0320892333984375,-1.005889892578125,95.16499328613281,-72.482666015625,-64.220458984375,,,,,,,,,,
1,2022-09-06 17:38:48.3680,00:12,60,0,2022-09-06 17:38:48.7250,1662457128.724769,-0.0026477147557567786,-0.00811971184754259,-0.00736790147181322,0.019622802734375,-0.0319366455078125,-1.005615234375,95.16636657714844,-72.79808044433594,-64.05485534667969,,,,,,,,,,
1,2022-09-06 17:38:48.3680,00:12,60,0,2022-09-06 17:38:48.7410,1662457128.741383,0.0015353123684306808,-0.007841145197520301,-0.005794505899794407,0.0191192626953125,-0.0322723388671875,-1.0059814453125,94.97935485839844,-72.44140625,-64.00859069824219,,,,,,,,,,
1,2022-09-06 17:38:48.3680,00:12,60,0,2022-09-06 17:38:48.7580,1662457128.757835,-0.0017963021552584461,-0.009346363845633086,-0.008557002898533601,0.018768310546875,-0.0323028564453125,-1.0054779052734375,95.14097595214844,-72.34355163574219,-64.82911682128906,,,,,,,,,,
1,2022-09-06 17:38:48.3680,00:12,60,0,2022-09-06 17:38:48.7770,1662457128.777034,-0.00012277172625265289,-0.013345899170714087,-0.006636331120368454,0.01885986328125,-0.032806396484375,-1.006378173828125,95.14535522460938,-72.68289184570312,-65.01251220703125,,,,,,,,,,
1,2022-09-06 17:38:48.3680,00:12,60,0,2022-09-06 17:38:48.7910,1662457128.791199,-0.00012277172625265289,-0.013345899170714087,-0.006636331120368454,0.01885986328125,-0.032806396484375,-1.006378173828125,95.14535522460938,-72.68289184570312,-65.01251220703125,,,,,,,,,,
1,2022-09-06 17:38:48.3680,00:12,60,0,2022-09-06 17:38:48.8100,1662457128.810008,-0.0022245384585431877,-0.009913350841710956,-0.00814394661346231,0.0191650390625,-0.0321502685546875,-1.0055694580078125,95.012451171875,-72.23753356933594,-64.81234741210938,,,,,,,,,,
1,2022-09-06 17:38:48.3680,00:12,60,0,2022-09-06 17:38:48.8250,1662457128.8247318,-0.0022245384585431877,-0.009913350841710956,-0.00814394661346231,0.0191650390625,-0.0321502685546875,-1.0055694580078125,95.1292724609375,-72.52938842773438,-64.78680419921875,,,,,,,,,,
1,2022-09-06 17:38:48.3680,00:12,60,0,2022-09-06 17:38:48.8420,1662457128.84162,-0.001090564466387448,-0.008590825044377607,-0.008002000127361087,0.018768310546875,-0.032379150390625,-1.00567626953125,95.24627685546875,-72.81973266601562,-65.140380859375,,,,,,,,,,
1,2022-09-06 17:38:48.3680,00:12,60,0,2022-09-06 17:38:48.8590,1662457128.8586879,-0.001125984508885502,-0.012087022923433631,-0.006817159758384834,0.0192108154296875,-0.0326385498046875,-1.0068511962890625,95.05436706542969,-72.60795593261719,-64.6697998046875,,,,,,,,,,
1,2022-09-06 17:38:48.3680,00:12,60,0,2022-09-06 17:38:48.8740,1662457128.874152,-0.002122006756575137,-0.008126902382485804,-0.010748518159559805,0.01885986328125,-0.0325469970703125,-1.0057373046875,95.08685302734375,-72.40802001953125,-63.75123596191406,,,,,,,,,,
1,2022-09-06 17:38:48.3680,00:12,60,0,2022-09-06 17:38:48.8920,1662457128.891796,-0.0030953921349990985,-0.009796970702074494,-0.00411245335530036,0.0187530517578125,-0.0318145751953125,-1.0058746337890625,95.08685302734375,-72.40802001953125,-63.75123596191406,,,,,,,,,,
1,2022-09-06 17:38:48.3680,00:12,60,0,2022-09-06 17:38:48.9080,1662457128.907634,-0.0016628777846454763,-0.008844890612371165,-0.00842224694737559,0.019012451171875,-0.0316162109375,-1.0059814453125,95.17257690429688,-72.88851928710938,-63.28953552246094,,,,,,,,,,
1,2022-09-06 17:38:48.3680,00:12,60,0,2022-09-06 17:38:48.9240,1662457128.9244208,-0.0021710089206325948,-0.008402273239199997,-0.008333031050857937,0.0189361572265625,-0.0330657958984375,-1.00579833984375,95.22541809082031,-72.76156616210938,-65.01943969726562,,,,,,,,,,
1,2022-09-06 17:38:48.3680,00:12,60,0,2022-09-06 17:38:48.9410,1662457128.941184,-0.00023089606650986995,-0.009730125358713504,-0.007492537410828929,0.0193023681640625,-0.0321197509765625,-1.005401611328125,95.16111755371094,-72.88331604003906,-64.963623046875,,,,,,,,,,
1,2022-09-06 17:38:48.3680,00:12,60,0,2022-09-06 17:38:48.9580,1662457128.957879,-0.0013246563262054132,-0.008865396952764776,-0.006238721169619623,0.0184326171875,-0.0320892333984375,-1.006439208984375,95.27198791503906,-72.62596130371094,-62.67396545410156,,,,,,,,,,
1,2022-09-06 17:38:48.3680,00:12,60,0,2022-09-06 17:38:48.9750,1662457128.974755,-0.003715109720660537,-0.011165036554048198,-0.00833649316027504,0.018341064453125,-0.0320587158203125,-1.006195068359375,95.18623352050781,-72.71527099609375,-65.06001281738281,,,,,,,,,,
1,2022-09-06 17:38:48.3680,00:12,60,0,2022-09-06 17:38:48.9930,1662457128.992797,-0.001366467955319657,-0.008316253135990437,-0.00790293053481014,0.0189208984375,-0.0323486328125,-1.0064544677734375,95.18623352050781,-72.71527099609375,-65.06001281738281,,,,,,,,,,
1,2022-09-06 17:38:48.3680,00:12,60,0,2022-09-06 17:38:49.0100,1662457129.009848,-0.0003994741635118857,-0.0099719403856927,-0.006485329886560961,0.0189666748046875,-0.032470703125,-1.0063018798828125,95.2977294921875,-72.81422424316406,-64.70819091796875,,,,,,,,,,
1,2022-09-06 17:38:48.3680,00:12,60,0,2022-09-06 17:38:49.0250,1662457129.02479,-0.0014460964719130262,-0.010898720445040274,-0.007150054894644739,0.0189361572265625,-0.0327606201171875,-1.00537109375,95.17388916015625,-72.73991394042969,-65.32994079589844,,,,,,,,,,
1,2022-09-06 17:38:48.3680,00:12,60,0,2022-09-06 17:38:49.0410,1662457129.041353,-0.0005305016891437842,-0.006781207083668765,-0.008278169932402305,0.0185394287109375,-0.031768798828125,-1.0063629150390625,95.14088439941406,-72.71308898925781,-65.28924560546875,,,,,,,,,,
1,2022-09-06 17:38:48.3680,00:12,60,0,2022-09-06 17:38:49.0600,1662457129.0596929,-0.0005334311663428715,-0.007893076838776845,-0.008150071883969493,0.018768310546875,-0.0318145751953125,-1.00616455078125,95.26777648925781,-72.78755187988281,-65.68563842773438,,,,,,,,,,
1,2022-09-06 17:38:48.3680,00:12,60,0,2022-09-06 17:38:49.0780,1662457129.0778608,0.0008804410563801961,-0.009791378063785328,-0.007236873946181322,0.019317626953125,-0.0322723388671875,-1.0061798095703125,95.12284851074219,-72.64427185058594,-66.19505310058594,,,,,,,,,,
1,2022-09-06 17:38:48.3680,00:12,60,0,2022-09-06 17:38:49.0910,1662457129.091336,-0.0006474144609982628,-0.007269364511480288,-0.006576942628059686,0.01873779296875,-0.0322723388671875,-1.0053558349609375,95.12284851074219,-72.64427185058594,-66.19505310058594,,,,,,,,,,
1,2022-09-06 17:38:48.3680,00:12,60,0,2022-09-06 17:38:49.1080,1662457129.107966,-0.0016090819306258757,-0.010739729727962544,-0.007482683714795635,0.020263671875,-0.0328521728515625,-1.0057373046875,95.2454833984375,-72.75773620605469,-64.79029846191406,,,,,,,,,,
1,2022-09-06 17:38:48.3680,00:12,60,0,2022-09-06 17:38:49.1250,1662457129.124535,-0.0002759034889322091,-0.010663030688568262,-0.006326871801701247,0.0193634033203125,-0.03167724609375,-1.0056915283203125,95.09915161132812,-72.78018188476562,-61.691925048828125,,,,,,,,,,
1,2022-09-06 17:38:48.3680,00:12,60,0,2022-09-06 17:38:49.1440,1662457129.1437979,-0.0015214639307622687,-0.007871771550056212,-0.006923419885878995,0.020416259765625,-0.0326080322265625,-1.007598876953125,95.283203125,-72.92088317871094,-64.72824096679688,,,,,,,,,,
1,2022-09-06 17:38:48.3680,00:12,60,0,2022-09-06 17:38:49.1580,1662457129.158081,-0.0005222458897645386,-0.009890447656336275,-0.007934089519564067,0.0199127197265625,-0.0316314697265625,-1.00567626953125,95.22364807128906,-72.64451599121094,-65.6705322265625,,,,,,,,,,
1,2022-09-06 17:38:48.3680,00:12,60,0,2022-09-06 17:38:49.1750,1662457129.1746268,-0.0019512981307010578,-0.011100055423450265,-0.0048818405942242515,0.01922607421875,-0.03302001953125,-1.0059661865234375,95.08616638183594,-72.43460083007812,-65.70838928222656,,,,,,,,,,
1,2022-09-06 17:38:48.3680,00:12,60,0,2022-09-06 17:38:49.1920,1662457129.1921592,-0.0019382486413596696,-0.012075837646855297,-0.008966330758078778,0.0195770263671875,-0.0325927734375,-1.0057525634765625,95.08616638183594,-72.43460083007812,-65.70838928222656,,,,,,,,,,
1,2022-09-06 17:38:48.3680,00:12,60,0,2022-09-06 17:38:49.2090,1662457129.209441,5.113269292952138e-05,-0.008248608844302424,-0.00748987424973885,0.0190277099609375,-0.03253173828125,-1.00543212890625,95.23947143554688,-72.77516174316406,-64.30647277832031,,,,,,,,,,
1,2022-09-06 17:38:48.3680,00:12,60,0,2022-09-06 17:38:49.2250,1662457129.2246752,-0.0023752733762416726,-0.007816377799382565,-0.006552441546030957,0.019805908203125,-0.0319976806640625,-1.00537109375,95.02066040039062,-72.60748291015625,-65.51679992675781,,,,,,,,,,
1,2022-09-06 17:38:48.3680,00:12,60,0,2022-09-06 17:38:49.2440,1662457129.244207,-0.0012974920830866048,-0.01206784816358506,-0.006430735084214337,0.018829345703125,-0.0328521728515625,-1.0055999755859375,95.13951110839844,-72.90692138671875,-65.13973999023438,,,,,,,,,,
1,2022-09-06 17:38:48.3680,00:12,60,0,2022-09-06 17:38:49.2600,1662457129.259695,0.0004548679141855339,-0.008198807731917944,-0.009137305700061866,0.0186920166015625,-0.0317230224609375,-1.005584716796875,95.05203247070312,-72.59561157226562,-66.43522644042969,,,,,,,,,,
1,2022-09-06 17:38:48.3680,00:12,60,0,2022-09-06 17:38:49.2760,1662457129.276338,-0.003392068280433926,-0.007552458535355712,-0.00813249502077497,0.0189208984375,-0.0325164794921875,-1.0057220458984375,95.11557006835938,-72.25347900390625,-66.13066101074219,,,,,,,,,,
1,2022-09-06 17:38:48.3680,00:12,60,0,2022-09-06 17:38:49.2930,1662457129.293334,-0.002082591972441964,-0.009418269195065226,-0.007662979720594,0.01898193359375,-0.032562255859375,-1.00628662109375,95.13526916503906,-72.51054382324219,-66.05780029296875,,,,,,,,,,
1,2022-09-06 17:38:48.3680,00:12,60,0,2022-09-06 17:38:49.3100,1662457129.3096461,-0.001052214946690307,-0.009374593353187926,-0.006316751789558945,0.01898193359375,-0.03228759765625,-1.006622314453125,95.13526916503906,-72.51054382324219,-66.05780029296875,,,,,,,,,,
1,2022-09-06 17:38:48.3680,00:12,60,0,2022-09-06 17:38:49.3250,1662457129.3249822,-0.0005012069171529127,-0.006732471235720314,-0.00793622004843613,0.019500732421875,-0.033294677734375,-1.004913330078125,95.11593627929688,-72.77499389648438,-65.46324157714844,,,,,,,,,,
1,2022-09-06 17:38:48.3680,00:12,60,0,2022-09-06 17:38:49.3420,1662457129.3423219,-0.0031233553264449305,-0.010281932336577922,-0.00779640409120697,0.0188446044921875,-0.0319976806640625,-1.00567626953125,95.07766723632812,-72.35639953613281,-68.16314697265625,,,,,,,,,,
1,2022-09-06 17:38:48.3680,00:12,60,0,2022-09-06 17:38:49.3610,1662457129.3607368,-0.00330684712555139,-0.009134908855080795,-0.007671235519973245,0.019439697265625,-0.03265380859375,-1.0071563720703125,95.08940124511719,-72.74363708496094,-67.93820190429688,,,,,,,,,,
1,2022-09-06 17:38:48.3680,00:12,60,0,2022-09-06 17:38:49.3760,1662457129.375756,-0.0034181672591167022,-0.007767908267543122,-0.00663420059149639,0.018707275390625,-0.0320892333984375,-1.0057830810546875,95.13751220703125,-72.37098693847656,-67.40303039550781,,,,,,,,,,
1,2022-09-06 17:38:48.3680,00:12,60,0,2022-09-06 17:38:49.3920,1662457129.392187,-0.0028511802630388325,-0.010402307217849504,-0.007710650304106418,0.01885986328125,-0.0323028564453125,-1.0058746337890625,95.13751220703125,-72.37098693847656,-67.40303039550781,,,,,,,,,,
1,2022-09-06 17:38:48.3680,00:12,60,0,2022-09-06 17:38:49.4100,1662457129.409878,-0.0005925533425426305,-0.007599862802759122,-0.006071740969271655,0.0188751220703125,-0.0328216552734375,-1.005126953125,95.13980102539062,-72.41244506835938,-67.50285339355469,,,,,,,,,,
1,2022-09-06 17:38:48.3680,00:12,60,0,2022-09-06 17:38:49.4250,1662457129.424906,-0.0007611314395446463,-0.010071009978243646,-0.004925250119992543,0.0191192626953125,-0.032012939453125,-1.00604248046875,95.10499572753906,-72.37788391113281,-67.77923583984375,,,,,,,,,,
1,2022-09-06 17:38:48.3680,00:12,60,0,2022-09-06 17:38:49.4420,1662457129.442412,-0.001447161736349058,-0.010799917168598334,-0.006423011917053106,0.0189971923828125,-0.0321502685546875,-1.0065765380859375,95.11549377441406,-72.43792724609375,-67.80807495117188,,,,,,,,,,
1,2022-09-06 17:38:48.3680,00:12,60,0,2022-09-06 17:38:49.4600,1662457129.460009,-0.0024562334733800816,-0.010082461570930987,-0.007700796608073125,0.0191497802734375,-0.032135009765625,-1.0063018798828125,95.22518920898438,-72.27658081054688,-67.6951904296875,,,,,,,,,,
1,2022-09-06 17:38:48.3680,00:12,60,0,2022-09-06 17:38:49.4760,1662457129.476367,-0.001419731177121242,-0.008416920625195431,-0.006649114293600834,0.0185089111328125,-0.032562255859375,-1.0063934326171875,95.20573425292969,-72.13032531738281,-67.14947509765625,,,,,,,,,,
1,2022-09-06 17:38:48.3680,00:12,60,0,2022-09-06 17:38:49.4910,1662457129.491251,-0.003996872163990921,-0.0069942599708751035,-0.00851465863720134,0.0197296142578125,-0.0315093994140625,-1.005523681640625,95.20573425292969,-72.13032531738281,-67.14947509765625,,,,,,,,,,
1,2022-09-06 17:38:48.3680,00:12,60,0,2022-09-06 17:38:49.5080,1662457129.508338,0.00045113948865942296,-0.011151188116379785,-0.009579124124906012,0.0189971923828125,-0.0324554443359375,-1.0049285888671875,95.19012451171875,-72.26704406738281,-66.69027709960938,,,,,,,,,,
1,2022-09-06 17:38:48.3680,00:12,60,0,2022-09-06 17:38:49.5260,1662457129.525552,-0.0013986922045096158,-0.008630506144619788,-0.00767070288775523,0.0192108154296875,-0.0325775146484375,-1.0062103271484375,95.04983520507812,-72.44717407226562,-67.90634155273438,,,,,,,,,,
1,2022-09-06 17:38:48.3680,00:12,60,0,2022-09-06 17:38:49.5420,1662457129.542438,-0.001153415068113318,-0.009464075565814589,-0.008889898034793505,0.019500732421875,-0.0319976806640625,-1.0060272216796875,95.28524780273438,-72.36058044433594,-67.62205505371094,,,,,,,,,,
1,2022-09-06 17:38:48.3680,00:12,60,0,2022-09-06 17:38:49.5600,1662457129.559956,0.00016165387816780976,-0.008137022394628105,-0.007720504000139712,0.01953125,-0.03289794921875,-1.005859375,95.18232727050781,-72.5615234375,-67.48408508300781,,,,,,,,,,
1,2022-09-06 17:38:48.3680,00:12,60,0,2022-09-06 17:38:49.5760,1662457129.576479,-0.0012402341196499013,-0.00866992092875296,-0.00901107186439211,0.019561767578125,-0.0323486328125,-1.00579833984375,95.17636108398438,-72.38314819335938,-67.75161743164062,,,,,,,,,,
1,2022-09-06 17:38:48.3680,00:12,60,0,2022-09-06 17:38:49.5930,1662457129.5933042,-0.002807770737270541,-0.01184600684478146,-0.007963384291554939,0.0196685791015625,-0.031890869140625,-1.0048828125,95.14253234863281,-72.16847229003906,-67.251953125,,,,,,,,,,
1,2022-09-06 17:38:48.3680,00:12,60,0,2022-09-06 17:38:49.6100,1662457129.609906,-0.003132143758042192,-0.010045976263996902,-0.0049963565210976585,0.018829345703125,-0.031951904296875,-1.0057525634765625,95.14253234863281,-72.16847229003906,-67.251953125,,,,,,,,,,
1,2022-09-06 17:38:48.3680,00:12,60,0,2022-09-06 17:38:49.6270,1662457129.6266088,-0.0022192121363630293,-0.010503241023163508,-0.006335660233298508,0.0189666748046875,-0.0320281982421875,-1.0062408447265625,94.98298645019531,-72.35614013671875,-67.37351989746094,,,,,,,,,,
1,2022-09-06 17:38:48.3680,00:12,60,0,2022-09-06 17:38:49.6430,1662457129.643135,-0.002657302135681064,-0.00991414979003798,-0.005981193492208961,0.018341064453125,-0.0319976806640625,-1.005401611328125,95.05711364746094,-72.29916381835938,-67.61015319824219,,,,,,,,,,
1,2022-09-06 17:38:48.3680,00:12,60,0,2022-09-06 17:38:49.6600,1662457129.659762,0.00013662016392106493,-0.011901400595455108,-0.005858954398174324,0.01885986328125,-0.032745361328125,-1.00543212890625,95.01226806640625,-72.17430114746094,-67.83103942871094,,,,,,,,,,
1,2022-09-06 17:38:48.3680,00:12,60,0,2022-09-06 17:38:49.6760,1662457129.676444,0.0008977516034657112,-0.009494435602241492,-0.007865912595658038,0.01910400390625,-0.0325775146484375,-1.0057525634765625,95.21366882324219,-72.36328125,-67.21942138671875,,,,,,,,,,
1,2022-09-06 17:38:48.3680,00:12,60,0,2022-09-06 17:38:49.6930,1662457129.693219,-0.0030362699587993393,-0.008328237360895793,-0.006816094493948802,0.018768310546875,-0.0321807861328125,-1.0054168701171875,95.13841247558594,-72.27360534667969,-66.55409240722656,,,,,,,,,,
1,2022-09-06 17:38:48.3680,00:12,60,0,2022-09-06 17:38:49.7100,1662457129.71001,0.0011965582777726017,-0.008870989591053943,-0.007283745581366716,0.01898193359375,-0.031829833984375,-1.0051727294921875,95.13841247558594,-72.27360534667969,-66.55409240722656,,,,,,,,,,
1,2022-09-06 17:38:48.3680,00:12,60,0,2022-09-06 17:38:49.7260,1662457129.726479,-0.002836266560934389,-0.010028665716911387,-0.007158044377914977,0.0192413330078125,-0.0331268310546875,-1.0068359375,95.04096984863281,-72.55091857910156,-66.69038391113281,,,,,,,,,,
1,2022-09-06 17:38:48.3680,00:12,60,0,2022-09-06 17:38:49.7430,1662457129.743166,-0.0015595471343504018,-0.00817989928817838,-0.008339422637474126,0.01885986328125,-0.0323333740234375,-1.005859375,95.27761840820312,-72.57514953613281,-66.98687744140625,,,,,,,,,,
1,2022-09-06 17:38:48.3680,00:12,60,0,2022-09-06 17:38:49.7600,1662457129.759972,-0.0023616912546822683,-0.010004164634882658,-0.007602525963849202,0.017852783203125,-0.0312347412109375,-1.0049896240234375,95.18055725097656,-72.35760498046875,-66.64450073242188,,,,,,,,,,
1,2022-09-06 17:38:48.3680,00:12,60,0,2022-09-06 17:38:49.7760,1662457129.776469,-0.000457797391384621,-0.0063891897712091,-0.008723983098881569,0.0199737548828125,-0.0329437255859375,-1.00567626953125,95.1170654296875,-72.14105224609375,-66.86636352539062,,,,,,,,,,
1,2022-09-06 17:38:48.3680,00:12,60,0,2022-09-06 17:38:49.7930,1662457129.793099,-0.0020479708782709344,-0.008121842376414654,-0.007300257180125207,0.0192108154296875,-0.032562255859375,-1.0055694580078125,95.07937622070312,-72.15921020507812,-66.83802795410156,,,,,,,,,,
1,2022-09-06 17:38:48.3680,00:12,60,0,2022-09-06 17:38:49.8100,1662457129.8099809,0.0007470166857672263,-0.011098457526796217,-0.005769205869438653,0.019744873046875,-0.032501220703125,-1.0056304931640625,95.07937622070312,-72.15921020507812,-66.83802795410156,,,,,,,,,,
1,2022-09-06 17:38:48.3680,00:12,60,0,2022-09-06 17:38:49.8270,1662457129.826648,-6.92421883420602e-06,-0.007939948473962241,-0.005477856046183985,0.0185699462890625,-0.03179931640625,-1.0060272216796875,95.12803649902344,-72.36247253417969,-67.10159301757812,,,,,,,,,,
1,2022-09-06 17:38:48.3680,00:12,60,0,2022-09-06 17:38:49.8430,1662457129.8431969,-0.0003869573063885133,-0.007561779599170989,-0.005890113382928251,0.0186767578125,-0.0319366455078125,-1.0052490234375,95.16340637207031,-72.40341186523438,-67.80686950683594,,,,,,,,,,
1,2022-09-06 17:38:48.3680,00:12,60,0,2022-09-06 17:38:49.8600,1662457129.859788,-0.0008761799986360694,-0.010653709624752985,-0.007645669173508485,0.0190887451171875,-0.0316162109375,-1.0067291259765625,95.22312927246094,-72.76966857910156,-67.85035705566406,,,,,,,,,,
1,2022-09-06 17:38:48.3680,00:12,60,0,2022-09-06 17:38:49.8760,1662457129.876305,-0.0022213426652350926,-0.008835569548555888,-0.008205731950752148,0.018768310546875,-0.0329437255859375,-1.0052947998046875,95.17208862304688,-72.37696838378906,-67.58151245117188,,,,,,,,,,
1,2022-09-06 17:38:48.3680,00:12,60,0,2022-09-06 17:38:49.8930,1662457129.8932,-0.002229598464614338,-0.011997807026915976,-0.0076800239515705075,0.018707275390625,-0.0317230224609375,-1.0062103271484375,95.223876953125,-72.28019714355469,-67.40570068359375,,,,,,,,,,
1,2022-09-06 17:38:48.3680,00:12,60,0,2022-09-06 17:38:49.9100,1662457129.909706,-0.0015747271525638536,-0.011587413902934765,-0.00700491261523542,0.0189971923828125,-0.032684326171875,-1.0055694580078125,95.223876953125,-72.28019714355469,-67.40570068359375,,,,,,,,,,
1,2022-09-06 17:38:48.3680,00:12,60,0,2022-09-06 17:38:49.9260,1662457129.9259439,-0.0034685010037192,-0.008159925580002786,-0.005689044720627269,0.0186767578125,-0.0312652587890625,-1.0057525634765625,95.31683349609375,-72.46427917480469,-67.83154296875,,,,,,,,,,
1,2022-09-06 17:38:48.3680,00:12,60,0,2022-09-06 17:38:49.9430,1662457129.943126,-0.0015472965933360373,-0.011384481027870727,-0.005179049371877095,0.019134521484375,-0.0322265625,-1.0064849853515625,95.36468505859375,-72.25605773925781,-67.91168212890625,,,,,,,,,,
1,2022-09-06 17:38:48.3680,00:12,60,0,2022-09-06 17:38:49.9600,1662457129.960088,-0.0008956210745936478,-0.009449960812037169,-0.005744971103518933,0.01885986328125,-0.03228759765625,-1.005859375,95.2476806640625,-72.29867553710938,-68.04527282714844,,,,,,,,,,
1,2022-09-06 17:38:48.3680,00:12,60,0,2022-09-06 17:38:49.9770,1662457129.976618,0.000744619840786155,-0.009228119493233568,-0.007374559374538419,0.0189361572265625,-0.0320281982421875,-1.00555419921875,95.126953125,-72.42594909667969,-68.29931640625,,,,,,,,,,
1,2022-09-06 17:38:48.3680,00:12,60,0,2022-09-06 17:38:49.9930,1662457129.993335,-0.0021425130969687472,-0.009678992665783983,-0.006033657765683522,0.0190277099609375,-0.0324249267578125,-1.006103515625,95.12808227539062,-72.28440856933594,-68.06463623046875,,,,,,,,,,
1,2022-09-06 17:38:48.3680,00:12,60,0,2022-09-06 17:38:50.0100,1662457130.0099092,0.0008093346552750805,-0.009842777072823857,-0.00660224265841544,0.01959228515625,-0.0308074951171875,-1.0060272216796875,95.12808227539062,-72.28440856933594,-68.06463623046875,,,,,,,,,,
1,2022-09-06 17:38:48.3680,00:12,60,0,2022-09-06 17:38:50.0270,1662457130.026653,-0.0025004419474753967,-0.008074970741229258,-0.0053372411406278015,0.019287109375,-0.03216552734375,-1.0052642822265625,95.22900390625,-72.16952514648438,-67.79032897949219,,,,,,,,,,
1,2022-09-06 17:38:48.3680,00:12,60,0,2022-09-06 17:38:50.0430,1662457130.043117,-0.0009936254027085637,-0.00971148323108295,-0.005798766957538533,0.0189666748046875,-0.03228759765625,-1.005615234375,95.08808898925781,-72.292724609375,-68.12673950195312,,,,,,,,,,
1,2022-09-06 17:38:48.3680,00:12,60,0,2022-09-06 17:38:50.0600,1662457130.059901,-0.0013052152502478346,-0.010270480743890581,-0.00610582943122467,0.0186309814453125,-0.0330352783203125,-1.0061798095703125,95.0155029296875,-72.00442504882812,-68.08821105957031,,,,,,,,,,
1,2022-09-06 17:38:48.3680,00:12,60,0,2022-09-06 17:38:50.0770,1662457130.076566,0.00062211443064251,-0.008584167141652409,-0.007167898073948269,0.018524169921875,-0.031890869140625,-1.005645751953125,95.1297607421875,-72.03239440917969,-67.9537353515625,,,,,,,,,,
1,2022-09-06 17:38:48.3680,00:12,60,0,2022-09-06 17:38:50.0930,1662457130.093182,-0.0019957729209053813,-0.010093114215291304,-0.006090116780793202,0.0197296142578125,-0.03179931640625,-1.005889892578125,95.0350341796875,-72.04914855957031,-67.78997802734375,,,,,,,,,,
1,2022-09-06 17:38:48.3680,00:12,60,0,2022-09-06 17:38:50.1100,1662457130.109847,-0.0012833773293091848,-0.011714180370822537,-0.007095460092298114,0.019073486328125,-0.0319061279296875,-1.0051422119140625,95.0350341796875,-72.04914855957031,-67.78997802734375,,,,,,,,,,
1,2022-09-06 17:38:48.3680,00:12,60,0,2022-09-06 17:38:50.1270,1662457130.126651,0.001569667146492703,-0.008231830929434926,-0.006417951910981956,0.0195770263671875,-0.0321197509765625,-1.0059051513671875,95.13029479980469,-72.35646057128906,-67.47529602050781,,,,,,,,,,
1,2022-09-06 17:38:48.3680,00:12,60,0,2022-09-06 17:38:50.1430,1662457130.14309,0.0005981459808317969,-0.00944197132876693,-0.008361793190630792,0.0186309814453125,-0.0320587158203125,-1.005859375,95.11569213867188,-71.96865844726562,-67.90924072265625,,,,,,,,,,
1,2022-09-06 17:38:48.3680,00:12,60,0,2022-09-06 17:38:50.1600,1662457130.1598248,-0.0029039108526224015,-0.008378304789389283,-0.005517537146426166,0.0184326171875,-0.0330810546875,-1.00555419921875,95.14454650878906,-72.38920593261719,-66.63621520996094,,,,,,,,,,
1,2022-09-06 17:38:48.3680,00:12,60,0,2022-09-06 17:38:50.1770,1662457130.176569,-0.0024101607865217108,-0.007955927440502716,-0.006964965198884232,0.0194091796875,-0.0321807861328125,-1.0058746337890625,95.24873352050781,-72.56809997558594,-66.98794555664062,,,,,,,,,,
1,2022-09-06 17:38:48.3680,00:12,60,0,2022-09-06 17:38:50.1930,1662457130.193419,-0.0008442220655551185,-0.009967413011839565,-0.007104781156113391,0.0189971923828125,-0.032501220703125,-1.0055084228515625,95.2889404296875,-72.64862060546875,-67.13829040527344,,,,,,,,,,
1,2022-09-06 17:38:48.3680,00:12,60,0,2022-09-06 17:38:50.2100,1662457130.210115,-0.0031310784936061605,-0.012302206339512033,-0.006036853558991617,0.0186309814453125,-0.0316009521484375,-1.005126953125,95.2889404296875,-72.64862060546875,-67.13829040527344,,,,,,,,,,
1,2022-09-06 17:38:48.3680,00:12,60,0,2022-09-06 17:38:50.2270,1662457130.226603,-0.0034210967363157894,-0.006593454226818178,-0.006154298963064112,0.019195556640625,-0.0321807861328125,-1.005706787109375,95.18119812011719,-72.38282775878906,-67.33091735839844,,,,,,,,,,
1,2022-09-06 17:38:48.3680,00:12,60,0,2022-09-06 17:38:50.2430,1662457130.243394,-0.0012852415420722403,-0.006584932111329924,-0.007185474937142793,0.0188140869140625,-0.0311431884765625,-1.0053253173828125,95.25308227539062,-72.4769287109375,-66.35382080078125,,,,,,,,,,
1,2022-09-06 17:38:48.3680,00:12,60,0,2022-09-06 17:38:50.2600,1662457130.259863,-0.0021457088902768423,-0.00942013340782828,-0.005813148027424961,0.0184478759765625,-0.032745361328125,-1.005462646484375,95.151123046875,-72.38423156738281,-67.90855407714844,,,,,,,,,,
1,2022-09-06 17:38:48.3680,00:12,60,0,2022-09-06 17:38:50.2770,1662457130.276597,-0.004032292206488974,-0.009272327967328884,-0.008974586557458026,0.018890380859375,-0.0325469970703125,-1.0069122314453125,95.33102416992188,-72.24647521972656,-67.90380859375,,,,,,,,,,
1,2022-09-06 17:38:48.3680,00:12,60,0,2022-09-06 17:38:50.2930,1662457130.293287,-0.002505501953546547,-0.009070460356700878,-0.007303452973433303,0.0189056396484375,-0.0324249267578125,-1.0053558349609375,95.2508544921875,-72.45018005371094,-68.02217102050781,,,,,,,,,,
1,2022-09-06 17:38:48.3680,00:12,60,0,2022-09-06 17:38:50.3100,1662457130.309894,0.0001898833857226497,-0.010416688287735933,-0.006939665168528479,0.018951416015625,-0.031951904296875,-1.006378173828125,95.2508544921875,-72.45018005371094,-68.02217102050781,,,,,,,,,,
1,2022-09-06 17:38:48.3680,00:12,60,0,2022-09-06 17:38:50.3270,1662457130.326788,-0.002187786835500094,-0.008058991774688783,-0.007840878881411294,0.01904296875,-0.03173828125,-1.00531005859375,95.43516540527344,-72.51898193359375,-67.61941528320312,,,,,,,,,,
1,2022-09-06 17:38:48.3680,00:12,60,0,2022-09-06 17:38:50.3430,1662457130.343226,-0.0013587447881584272,-0.010921889946523964,-0.00868669884362046,0.01861572265625,-0.0325164794921875,-1.00640869140625,95.24382019042969,-72.59835815429688,-66.56053161621094,,,,,,,,,,
1,2022-09-06 17:38:48.3680,00:12,60,0,2022-09-06 17:38:50.3600,1662457130.359829,0.0001675128325659841,-0.010785003466493892,-0.006812366068422691,0.019195556640625,-0.0323486328125,-1.00640869140625,95.27584838867188,-72.341552734375,-66.42190551757812,,,,,,,,,,
1,2022-09-06 17:38:48.3680,00:12,60,0,2022-09-06 17:38:50.3770,1662457130.376585,-0.001778991608172931,-0.010240387023572687,-0.008805475828237994,0.018951416015625,-0.0314178466796875,-1.004669189453125,95.27798461914062,-72.16522216796875,-67.03837585449219,,,,,,,,,,
1,2022-09-06 17:38:48.3680,00:12,60,0,2022-09-06 17:38:50.3930,1662457130.393282,-0.0036581180733328417,-0.010063553127191425,-0.004927913281082622,0.0190887451171875,-0.03289794921875,-1.0053863525390625,95.02906799316406,-72.06834411621094,-66.67054748535156,,,,,,,,,,
1,2022-09-06 17:38:48.3680,00:12,60,0,2022-09-06 17:38:50.4090,1662457130.409048,-0.0004135889172893057,-0.009200156301787736,-0.007557252225317854,0.0197601318359375,-0.0322113037109375,-1.0060272216796875,95.02906799316406,-72.06834411621094,-66.67054748535156,,,,,,,,,,
1,2022-09-06 17:38:48.3680,00:12,60,0,2022-09-06 17:38:50.4250,1662457130.425489,-0.0010125338464481264,-0.011210576608688553,-0.005959888203488327,0.0189056396484375,-0.0330657958984375,-1.0062713623046875,95.37332153320312,-72.59431457519531,-65.93661499023438,,,,,,,,,,
1,2022-09-06 17:38:48.3680,00:12,60,0,2022-09-06 17:38:50.4420,1662457130.44175,-0.0009041431900819013,-0.013284113833424248,-0.007986287476929619,0.018402099609375,-0.0325775146484375,-1.0055999755859375,95.18495178222656,-72.43638610839844,-66.84523010253906,,,,,,,,,,
1,2022-09-06 17:38:48.3680,00:12,60,0,2022-09-06 17:38:50.4600,1662457130.460009,-0.003890878352605767,-0.011150122851943755,-0.005762281650604448,0.0186920166015625,-0.0323944091796875,-1.0061492919921875,95.02297973632812,-72.38703918457031,-66.92500305175781,,,,,,,,,,
1,2022-09-06 17:38:48.3680,00:12,60,0,2022-09-06 17:38:50.4770,1662457130.4765282,-0.0005842975431633848,-0.012778113226309193,-0.008908007530206043,0.0185699462890625,-0.0330047607421875,-1.0050048828125,95.19987487792969,-72.516845703125,-67.08197021484375,,,,,,,,,,
1,2022-09-06 17:38:48.3680,00:12,60,0,2022-09-06 17:38:50.4930,1662457130.493408,-0.0012647352016786303,-0.010012686750370911,-0.0076640449850300316,0.01947021484375,-0.0318603515625,-1.005645751953125,95.1612548828125,-72.39216613769531,-66.77212524414062,,,,,,,,,,
1,2022-09-06 17:38:48.3680,00:12,60,0,2022-09-06 17:38:50.5100,1662457130.509896,-0.001898301225008481,-0.007321296152736834,-0.005724198447016314,0.019073486328125,-0.0320281982421875,-1.0045928955078125,94.99433898925781,-72.60798645019531,-66.69200134277344,,,,,,,,,,
1,2022-09-06 17:38:48.3680,00:12,60,0,2022-09-06 17:38:50.5260,1662457130.52641,-0.00023009711818284618,-0.010487262056623032,-0.006162554762443357,0.0191650390625,-0.0323028564453125,-1.0056304931640625,94.99433898925781,-72.60798645019531,-66.69200134277344,,,,,,,,,,
1,2022-09-06 17:38:48.3680,00:12,60,0,2022-09-06 17:38:50.5430,1662457130.54319,0.00020932446168022814,-0.012739497390503044,-0.0068158281778397944,0.0193328857421875,-0.0323028564453125,-1.0056610107421875,95.21331787109375,-72.70425415039062,-66.72344970703125,,,,,,,,,,
1,2022-09-06 17:38:48.3680,00:12,60,0,2022-09-06 17:38:50.5600,1662457130.559802,-0.0012676646788777174,-0.006232862215221449,-0.0061044978506796296,0.0196685791015625,-0.0328216552734375,-1.0062713623046875,95.29243469238281,-72.62602233886719,-66.79063415527344,,,,,,,,,,
1,2022-09-06 17:38:48.3680,00:12,60,0,2022-09-06 17:38:50.5770,1662457130.57656,-0.0020367856016926013,-0.010188988014534158,-0.005642439401550882,0.0193634033203125,-0.031097412109375,-1.0057525634765625,95.26411437988281,-72.54978942871094,-66.85198974609375,,,,,,,,,,
1,2022-09-06 17:38:48.3680,00:12,60,0,2022-09-06 17:38:50.5930,1662457130.5932078,-0.003587277988336734,-0.010562363199363267,-0.005289836873224391,0.0186920166015625,-0.031982421875,-1.006317138671875,95.18374633789062,-72.46017456054688,-67.0328369140625,,,,,,,,,,
1,2022-09-06 17:38:48.3680,00:12,60,0,2022-09-06 17:38:50.6100,1662457130.609894,-0.0034240262135148765,-0.008574846077837131,-0.004620051859069462,0.0193634033203125,-0.0322113037109375,-1.005615234375,95.38796997070312,-72.50303649902344,-66.61640930175781,,,,,,,,,,
1,2022-09-06 17:38:48.3680,00:12,60,0,2022-09-06 17:38:50.6260,1662457130.626495,-0.00044741106313331204,-0.009245962672537099,-0.0050123354876381344,0.019439697265625,-0.0323944091796875,-1.005645751953125,95.38796997070312,-72.50303649902344,-66.61640930175781,,,,,,,,,,
1,2022-09-06 17:38:48.3680,00:12,60,0,2022-09-06 17:38:50.6430,1662457130.643186,-0.001339037396091841,-0.009274458496200948,-0.0072621739765370745,0.0186920166015625,-0.0325775146484375,-1.005950927734375,95.23736572265625,-72.30213928222656,-66.82835388183594,,,,,,,,,,
1,2022-09-06 17:38:48.3680,00:12,60,0,2022-09-06 17:38:50.6600,1662457130.6597981,-0.004132160747366946,-0.007596400693342019,-0.007543936419867458,0.01873779296875,-0.0318450927734375,-1.00555419921875,95.10853576660156,-72.12226867675781,-66.73304748535156,,,,,,,,,,
1,2022-09-06 17:38:48.3680,00:12,60,0,2022-09-06 17:38:50.6760,1662457130.676393,-0.0006679208013918729,-0.010097375273035432,-0.00826591939138794,0.018646240234375,-0.0326690673828125,-1.006134033203125,95.23052978515625,-72.50096130371094,-66.84275817871094,,,,,,,,,,
1,2022-09-06 17:38:48.3680,00:12,60,0,2022-09-06 17:38:50.6930,1662457130.693367,0.0012080098704599425,-0.01158688127071675,-0.005907956562231782,0.0184783935546875,-0.03167724609375,-1.0057830810546875,95.11224365234375,-72.26263427734375,-66.46748352050781,,,,,,,,,,
1,2022-09-06 17:38:48.3680,00:12,60,0,2022-09-06 17:38:50.7100,1662457130.709857,-0.0028652950168162523,-0.009118397256322304,-0.007937285312872161,0.0192413330078125,-0.0322265625,-1.005523681640625,95.27986145019531,-72.37947082519531,-65.93214416503906,,,,,,,,,,
1,2022-09-06 17:38:48.3680,00:12,60,0,2022-09-06 17:38:50.7270,1662457130.726591,-0.00248978930311508,-0.011869176346265149,-0.0077985346200790335,0.018768310546875,-0.0319671630859375,-1.0057830810546875,95.27986145019531,-72.37947082519531,-65.93214416503906,,,,,,,,,,
1,2022-09-06 17:38:48.3680,00:12,60,0,2022-09-06 17:38:50.7430,1662457130.743137,-0.002520415655650991,-0.01181005417006539,-0.0074001257210031795,0.0187835693359375,-0.0320281982421875,-1.0057220458984375,95.31405639648438,-72.43733215332031,-65.87727355957031,,,,,,,,,,
1,2022-09-06 17:38:48.3680,00:12,60,0,2022-09-06 17:38:50.7600,1662457130.759829,1.4381069886427886e-05,-0.010941331022481543,-0.0061934474310882765,0.0187225341796875,-0.031890869140625,-1.006134033203125,95.26937866210938,-72.5845947265625,-63.07365417480469,,,,,,,,,,
1,2022-09-06 17:38:48.3680,00:12,60,0,2022-09-06 17:38:50.7760,1662457130.776366,-0.0024141555281568293,-0.010013219382588928,-0.008025435944953785,0.0191650390625,-0.0324554443359375,-1.006134033203125,95.19062805175781,-72.46322631835938,-66.01551818847656,,,,,,,,,,
1,2022-09-06 17:38:48.3680,00:12,60,0,2022-09-06 17:38:50.7930,1662457130.793219,-0.0029720877765284297,-0.009100820393127781,-0.007832623082032048,0.0192413330078125,-0.0323944091796875,-1.0052642822265625,95.41877746582031,-72.76531982421875,-65.86941528320312,,,,,,,,,,
1,2022-09-06 17:38:48.3680,00:12,60,0,2022-09-06 17:38:50.8100,1662457130.809935,-0.002285524847506002,-0.009209477365603014,-0.007629423890859002,0.018646240234375,-0.0323028564453125,-1.0051422119140625,95.27261352539062,-72.08531188964844,-66.03265380859375,,,,,,,,,,
1,2022-09-06 17:38:48.3680,00:12,60,0,2022-09-06 17:38:50.8270,1662457130.8265219,-0.0021403825680966835,-0.008900550679153822,-0.006163087394661373,0.0191497802734375,-0.0315704345703125,-1.00616455078125,95.27261352539062,-72.08531188964844,-66.03265380859375,,,,,,,,,,
1,2022-09-06 17:38:48.3680,00:12,60,0,2022-09-06 17:38:50.8430,1662457130.843101,-0.0018852517356670927,-0.009766078033429574,-0.0061745389873487135,0.0194854736328125,-0.032470703125,-1.005401611328125,95.2073974609375,-72.53933715820312,-66.14810180664062,,,,,,,,,,
1,2022-09-06 17:38:48.3680,00:12,60,0,2022-09-06 17:38:50.8600,1662457130.8597178,-0.0011901666911564115,-0.008145544510116358,-0.009148757292749207,0.01959228515625,-0.0323333740234375,-1.0069732666015625,95.18400573730469,-72.46015930175781,-66.50273132324219,,,,,,,,,,
1,2022-09-06 17:38:48.3680,00:12,60,0,2022-09-06 17:38:50.8760,1662457130.8764539,-0.0003166498536104214,-0.012928315511789662,-0.005059739755041545,0.0186767578125,-0.032257080078125,-1.005279541015625,95.19294738769531,-72.30447387695312,-66.57017517089844,,,,,,,,,,
1,2022-09-06 17:38:48.3680,00:12,60,0,2022-09-06 17:38:50.8930,1662457130.893156,0.002628539995908208,-0.009332515407964674,-0.006524744670694134,0.0187835693359375,-0.03326416015625,-1.0054931640625,95.23629760742188,-72.48904418945312,-67.08110046386719,,,,,,,,,,
1,2022-09-06 17:38:48.3680,00:12,60,0,2022-09-06 17:38:50.9100,1662457130.909872,-0.003457582043249875,-0.011647335027461549,-0.007421697325832821,0.0186920166015625,-0.03173828125,-1.005767822265625,95.05862426757812,-72.32560729980469,-66.38296508789062,,,,,,,,,,
1,2022-09-06 17:38:48.3680,00:12,60,0,2022-09-06 17:38:50.9270,1662457130.926729,-0.0013755227030259264,-0.00792077371411367,-0.006898652487741259,0.0194854736328125,-0.03173828125,-1.005859375,95.05862426757812,-72.32560729980469,-66.38296508789062,,,,,,,,,,
1,2022-09-06 17:38:48.3680,00:12,60,0,2022-09-06 17:38:50.9430,1662457130.9432511,-0.0004226436649955751,-0.011183412365569745,-0.007313306669466596,0.018707275390625,-0.032257080078125,-1.0055389404296875,95.16682434082031,-72.140869140625,-66.91474914550781,,,,,,,,,,
1,2022-09-06 17:38:48.3680,00:12,60,0,2022-09-06 17:38:50.9600,1662457130.960057,-0.0016974988788165065,-0.009684318987964142,-0.007641940747982374,0.018951416015625,-0.0330810546875,-1.005706787109375,95.17333984375,-72.01219177246094,-67.07618713378906,,,,,,,,,,
1,2022-09-06 17:38:48.3680,00:12,60,0,2022-09-06 17:38:50.9770,1662457130.9765859,-0.0011997540710806968,-0.008654208278321493,-0.006049636732223997,0.019561767578125,-0.03240966796875,-1.0059661865234375,95.182373046875,-72.26374816894531,-66.5289306640625,,,,,,,,,,
1,2022-09-06 17:38:48.3680,00:12,60,0,2022-09-06 17:38:50.9930,1662457130.9930801,-0.0012530172928822815,-0.009232913183195711,-0.006429137187560289,0.0189056396484375,-0.032318115234375,-1.0048828125,95.12821960449219,-72.35896301269531,-66.61181640625,,,,,,,,,,
1,2022-09-06 17:38:48.3680,00:12,60,0,2022-09-06 17:38:51.0100,1662457131.009944,-0.0016160061494600818,-0.007279750839731597,-0.005593703553602432,0.0192413330078125,-0.0319671630859375,-1.00506591796875,95.22605895996094,-71.99162292480469,-67.02499389648438,,,,,,,,,,
1,2022-09-06 17:38:48.3680,00:12,60,0,2022-09-06 17:38:51.0270,1662457131.026653,-0.0028493160502757768,-0.008489891239063603,-0.007801197781169112,0.018646240234375,-0.0318603515625,-1.005767822265625,95.22605895996094,-71.99162292480469,-67.02499389648438,,,,,,,,,,
1,2022-09-06 17:38:48.3680,00:12,60,0,2022-09-06 17:38:51.0430,1662457131.043036,0.0003643204371228398,-0.013270798027973853,-0.0043425504734832055,0.019439697265625,-0.0328369140625,-1.00555419921875,95.23710632324219,-72.37762451171875,-66.38752746582031,,,,,,,,,,
1,2022-09-06 17:38:48.3680,00:12,60,0,2022-09-06 17:38:51.0600,1662457131.059844,-0.003792874024490851,-0.01076716028719036,-0.00709865588560621,0.0188140869140625,-0.0320281982421875,-1.006683349609375,95.30168151855469,-72.54110717773438,-67.17050170898438,,,,,,,,,,
1,2022-09-06 17:38:48.3680,00:12,60,0,2022-09-06 17:38:51.0760,1662457131.0763779,-0.0022138858141828705,-0.009527725115867483,-0.005555087717796283,0.01934814453125,-0.0324249267578125,-1.0062408447265625,95.23468017578125,-72.4515380859375,-66.45663452148438,,,,,,,,,,
1,2022-09-06 17:38:48.3680,00:12,60,0,2022-09-06 17:38:51.0930,1662457131.092989,-0.0006937534639656416,-0.01047208203840958,-0.00673300386793833,0.01922607421875,-0.0323486328125,-1.005645751953125,95.09413146972656,-72.3450927734375,-67.39433288574219,,,,,,,,,,
1,2022-09-06 17:38:48.3680,00:12,60,0,2022-09-06 17:38:51.1100,1662457131.109879,-0.0024144218442658373,-0.008057926510252751,-0.00620702955264768,0.0186004638671875,-0.03125,-1.0061187744140625,95.22236633300781,-72.63690185546875,-66.88436889648438,,,,,,,,,,
1,2022-09-06 17:38:48.3680,00:12,60,0,2022-09-06 17:38:51.1260,1662457131.126461,-0.0006372944488559617,-0.005214469414375148,-0.006297577029710374,0.0192718505859375,-0.0323333740234375,-1.0057220458984375,95.22236633300781,-72.63690185546875,-66.88436889648438,,,,,,,,,,
1,2022-09-06 17:38:48.3680,00:12,60,0,2022-09-06 17:38:51.1430,1662457131.142977,-0.0025992452239173365,-0.011356517836424895,-0.004920190113921393,0.0190887451171875,-0.03155517578125,-1.0058441162109375,95.21406555175781,-72.49006652832031,-66.86721801757812,,,,,,,,,,
1,2022-09-06 17:38:48.3680,00:12,60,0,2022-09-06 17:38:51.1600,1662457131.159696,-0.0014514227940931848,-0.00791571370804252,-0.008228901452235838,0.0190887451171875,-0.0325927734375,-1.0061187744140625,95.31747436523438,-72.75637817382812,-66.27706909179688,,,,,,,,,,
1,2022-09-06 17:38:48.3680,00:12,60,0,2022-09-06 17:38:51.1760,1662457131.176424,-0.0006948187284016732,-0.007673898681063325,-0.008096276029949893,0.018585205078125,-0.032257080078125,-1.0058746337890625,95.24745178222656,-72.52226257324219,-67.177734375,,,,,,,,,,
1,2022-09-06 17:38:48.3680,00:12,60,0,2022-09-06 17:38:51.1930,1662457131.193279,-0.0005390238046320378,-0.010083793151476027,-0.007755924042637766,0.019012451171875,-0.032012939453125,-1.0060272216796875,95.22726440429688,-72.423583984375,-66.41043090820312,,,,,,,,,,
1,2022-09-06 17:38:48.3680,00:12,60,0,2022-09-06 17:38:51.2100,1662457131.210114,-0.0017390441918217424,-0.010261159680075304,-0.006534598366727427,0.019195556640625,-0.0321807861328125,-1.0056304931640625,95.18437194824219,-72.5023193359375,-63.30863952636719,,,,,,,,,,
1,2022-09-06 17:38:48.3680,00:12,60,0,2022-09-06 17:38:51.2270,1662457131.226552,-0.002981142524234699,-0.008678176728132205,-0.008598015579320821,0.0194549560546875,-0.0323638916015625,-1.005126953125,95.18437194824219,-72.5023193359375,-63.30863952636719,,,,,,,,,,
1,2022-09-06 17:38:48.3680,00:12,60,0,2022-09-06 17:38:51.2430,1662457131.24317,-1.2783173232380344e-05,-0.011412976851534576,-0.007787881975718716,0.019378662109375,-0.03179931640625,-1.00677490234375,95.21139526367188,-72.54508972167969,-66.07528686523438,,,,,,,,,,
1,2022-09-06 17:38:48.3680,00:12,60,0,2022-09-06 17:38:51.2600,1662457131.259808,-0.0016413061798158345,-0.010290720768175185,-0.006625145843790121,0.019439697265625,-0.0321044921875,-1.00592041015625,95.14309692382812,-72.44459533691406,-66.256591796875,,,,,,,,,,
1,2022-09-06 17:38:48.3680,00:12,60,0,2022-09-06 17:38:51.2770,1662457131.276544,-0.0027172232602078465,-0.008673649354279072,-0.007219297082986799,0.018463134765625,-0.03240966796875,-1.0052642822265625,95.15133666992188,-72.15342712402344,-66.43421936035156,,,,,,,,,,
1,2022-09-06 17:38:48.3680,00:12,60,0,2022-09-06 17:38:51.2930,1662457131.293016,-0.001981125534909945,-0.00869948201685284,-0.008856342205058506,0.0192718505859375,-0.0323028564453125,-1.006011962890625,95.16976928710938,-72.29936218261719,-66.67767333984375,,,,,,,,,,
1,2022-09-06 17:38:48.3680,00:12,60,0,2022-09-06 17:38:51.3100,1662457131.3098679,-0.0008958873907026557,-0.009948238251990994,-0.006805175533479478,0.019012451171875,-0.032958984375,-1.005615234375,95.20443725585938,-72.35636901855469,-66.80155944824219,,,,,,,,,,
1,2022-09-06 17:38:48.3680,00:12,60,0,2022-09-06 17:38:51.3260,1662457131.32648,-0.0012998889280676762,-0.008044344388693347,-0.007990814850782754,0.01934814453125,-0.032684326171875,-1.0059814453125,95.20443725585938,-72.35636901855469,-66.80155944824219,,,,,,,,,,
1,2022-09-06 17:38:48.3680,00:12,60,0,2022-09-06 17:38:51.3430,1662457131.343142,-0.0020405140272187123,-0.00880068213827585,-0.004897020612437703,0.0193328857421875,-0.0322113037109375,-1.00634765625,95.41377258300781,-72.91825866699219,-65.89634704589844,,,,,,,,,,
1,2022-09-06 17:38:48.3680,00:12,60,0,2022-09-06 17:38:51.3600,1662457131.359717,0.00011584750741844686,-0.008928780186708661,-0.00979990017927358,0.0192413330078125,-0.032806396484375,-1.0043182373046875,95.316650390625,-72.78096008300781,-66.41741943359375,,,,,,,,,,
1,2022-09-06 17:38:48.3680,00:12,60,0,2022-09-06 17:38:51.3760,1662457131.376388,-0.0021912489449171972,-0.008333031050857937,-0.006972155733827446,0.0188751220703125,-0.0329132080078125,-1.006439208984375,95.23442077636719,-72.69808959960938,-66.19148254394531,,,,,,,,,,
1,2022-09-06 17:38:48.3680,00:12,60,0,2022-09-06 17:38:51.3930,1662457131.392993,-0.0008519452327163483,-0.012436429658452026,-0.005281048441627129,0.0191192626953125,-0.03240966796875,-1.00567626953125,95.04481506347656,-72.25674438476562,-66.53756713867188,,,,,,,,,,
1,2022-09-06 17:38:48.3680,00:12,60,0,2022-09-06 17:38:51.4100,1662457131.409999,-0.001954227607900145,-0.009129848849009645,-0.00811065709983632,0.0189056396484375,-0.0320281982421875,-1.005584716796875,95.10708618164062,-72.52581787109375,-66.78779602050781,,,,,,,,,,
1,2022-09-06 17:38:48.3680,00:12,60,0,2022-09-06 17:38:51.4270,1662457131.426886,-0.00025220135523050383,-0.005984655601626064,-0.006197708488832403,0.0187835693359375,-0.0322113037109375,-1.006195068359375,95.13099670410156,-72.27642822265625,-65.83253479003906,,,,,,,,,,
1,2022-09-06 17:38:48.3680,00:12,60,0,2022-09-06 17:38:51.4420,1662457131.442247,-0.00450234013888796,-0.00918178049026619,-0.007241401320034457,0.0192718505859375,-0.03265380859375,-1.0045013427734375,95.13099670410156,-72.27642822265625,-65.83253479003906,,,,,,,,,,
1,2022-09-06 17:38:48.3680,00:12,60,0,2022-09-06 17:38:51.4600,1662457131.459917,-0.0002729740117331219,-0.010288057607085106,-0.004986769141173374,0.0186920166015625,-0.03192138671875,-1.00640869140625,95.24295043945312,-72.55674743652344,-66.96563720703125,,,,,,,,,,
1,2022-09-06 17:38:48.3680,00:12,60,0,2022-09-06 17:38:51.4770,1662457131.4766002,-0.0017230652252812671,-0.012183429354894498,-0.006123139978310184,0.0193634033203125,-0.0319671630859375,-1.006072998046875,95.1353759765625,-72.44561767578125,-66.95384216308594,,,,,,,,,,
1,2022-09-06 17:38:48.3680,00:12,60,0,2022-09-06 17:38:51.4930,1662457131.493071,-0.0015302523623595304,-0.01078367188594885,-0.0060190103796880865,0.0190277099609375,-0.0319061279296875,-1.00592041015625,95.18955993652344,-72.66224670410156,-66.57011413574219,,,,,,,,,,
1,2022-09-06 17:38:48.3680,00:12,60,0,2022-09-06 17:38:51.5100,1662457131.5097752,-0.0016266587938203987,-0.008173241385453183,-0.004807005767593025,0.0186767578125,-0.03216552734375,-1.0058135986328125,95.23883056640625,-72.10612487792969,-66.98410034179688,,,,,,,,,,
1,2022-09-06 17:38:48.3680,00:12,60,0,2022-09-06 17:38:51.5260,1662457131.5264258,-0.0018168084956520563,-0.01044012410532863,-0.005927930270407377,0.019256591796875,-0.03179931640625,-1.0054779052734375,95.23883056640625,-72.10612487792969,-66.98410034179688,,,,,,,,,,
1,2022-09-06 17:38:48.3680,00:12,60,0,2022-09-06 17:38:51.5430,1662457131.5430222,-0.001818406392306104,-0.009033442417548776,-0.007151386475189778,0.0186920166015625,-0.0322113037109375,-1.0060272216796875,95.1614990234375,-72.24130249023438,-66.64691162109375,,,,,,,,,,
1,2022-09-06 17:38:48.3680,00:12,60,0,2022-09-06 17:38:51.5600,1662457131.559809,0.00023382554370895712,-0.00972293482377029,-0.007359113040215959,0.0188751220703125,-0.032562255859375,-1.0045013427734375,95.2125244140625,-72.46073913574219,-66.65081787109375,,,,,,,,,,
1,2022-09-06 17:38:48.3680,00:12,60,0,2022-09-06 17:38:51.5760,1662457131.576285,-0.003973436346398224,-0.008983641305164294,-0.006366020269725411,0.0188446044921875,-0.0320281982421875,-1.00579833984375,94.95841979980469,-71.97117614746094,-66.68923950195312,,,,,,,,,,
1,2022-09-06 17:38:48.3680,00:12,60,0,2022-09-06 17:38:51.5930,1662457131.593025,-0.0004673847713089063,-0.01042600935155121,-0.007118629593781804,0.0186614990234375,-0.0320587158203125,-1.0055694580078125,95.2625732421875,-72.42987060546875,-67.33914184570312,,,,,,,,,,
1,2022-09-06 17:38:48.3680,00:12,60,0,2022-09-06 17:38:51.6100,1662457131.610002,-0.00267834110829269,-0.0100358562518546,-0.006746852305606742,0.0190277099609375,-0.03240966796875,-1.0047607421875,95.23953247070312,-72.29173278808594,-67.15673828125,,,,,,,,,,
1,2022-09-06 17:38:48.3680,00:12,60,0,2022-09-06 17:38:51.6270,1662457131.62658,-0.0035776906084124486,-0.009803095972581676,-0.006674414323956586,0.01934814453125,-0.0321197509765625,-1.0056610107421875,95.23446655273438,-72.39451599121094,-66.91741943359375,,,,,,,,,,
1,2022-09-06 17:38:48.3680,00:12,60,0,2022-09-06 17:38:51.6430,1662457131.643214,-0.0029145634969827182,-0.011417770541496718,-0.006610232141685677,0.0185546875,-0.032470703125,-1.0059661865234375,95.23446655273438,-72.39451599121094,-66.91741943359375,,,,,,,,,,
1,2022-09-06 17:38:48.3680,00:12,60,0,2022-09-06 17:38:51.6600,1662457131.6597528,-0.0011265171411035178,-0.009055014022378417,-0.006277869637643789,0.0191192626953125,-0.0328216552734375,-1.005889892578125,95.16654968261719,-72.31562805175781,-66.90278625488281,,,,,,,,,,
1,2022-09-06 17:38:48.3680,00:12,60,0,2022-09-06 17:38:51.6760,1662457131.676317,-0.003897536255330965,-0.010293117613156256,-0.00686509665800626,0.018829345703125,-0.0324554443359375,-1.0066375732421875,95.30587768554688,-72.59434509277344,-67.09832763671875,,,,,,,,,,
1,2022-09-06 17:38:48.3680,00:12,60,0,2022-09-06 17:38:51.6930,1662457131.693259,-0.0006972155733827445,-0.008493885980698722,-0.0031377363963313583,0.01934814453125,-0.0329437255859375,-1.0062103271484375,95.19157409667969,-72.66239929199219,-66.66526794433594,,,,,,,,,,
1,2022-09-06 17:38:48.3680,00:12,60,0,2022-09-06 17:38:51.7100,1662457131.710108,-0.0013294500161675556,-0.00933437962072773,-0.008832373755247794,0.0189208984375,-0.0331268310546875,-1.00653076171875,95.17971801757812,-72.26884460449219,-66.11676025390625,,,,,,,,,,
1,2022-09-06 17:38:48.3680,00:12,60,0,2022-09-06 17:38:51.7270,1662457131.726567,-0.0017851168786801133,-0.009413209188994076,-0.004780107840583225,0.019195556640625,-0.0317230224609375,-1.00567626953125,95.18695068359375,-72.63473510742188,-66.26188659667969,,,,,,,,,,
1,2022-09-06 17:38:48.3680,00:12,60,0,2022-09-06 17:38:51.7430,1662457131.7431889,-0.002303368026809533,-0.01082628246339012,-0.005647233091513024,0.019195556640625,-0.0319976806640625,-1.006256103515625,95.18695068359375,-72.63473510742188,-66.26188659667969,,,,,,,,,,
1,2022-09-06 17:38:48.3680,00:12,60,0,2022-09-06 17:38:51.7600,1662457131.759804,0.0002442118719602661,-0.00986940868372465,-0.006849916639792808,0.018798828125,-0.0322113037109375,-1.006072998046875,95.15122985839844,-72.61593627929688,-66.45721435546875,,,,,,,,,,
1,2022-09-06 17:38:48.3680,00:12,60,0,2022-09-06 17:38:51.7760,1662457131.7764769,-0.0010122675303391184,-0.009482185061227128,-0.005226187323171497,0.0189971923828125,-0.0314178466796875,-1.0047607421875,95.18788146972656,-72.65065002441406,-66.52980041503906,,,,,,,,,,
1,2022-09-06 17:38:48.3680,00:12,60,0,2022-09-06 17:38:51.7930,1662457131.7932,-5.352953791059269e-05,-0.008268848868587027,-0.004681038248032277,0.01904296875,-0.0330810546875,-1.0062255859375,95.19073486328125,-72.26763916015625,-66.1983642578125,,,,,,,,,,
1,2022-09-06 17:38:48.3680,00:12,60,0,2022-09-06 17:38:51.8100,1662457131.8099241,-0.0027233485307150288,-0.010999920566463286,-0.005886118641293132,0.0189056396484375,-0.03173828125,-1.005584716796875,95.34454345703125,-72.45950317382812,-66.11747741699219,,,,,,,,,,
1,2022-09-06 17:38:48.3680,00:12,60,0,2022-09-06 17:38:51.8260,1662457131.826391,-0.0013819142896421166,-0.008068579154613068,-0.006427272974797234,0.01861572265625,-0.03289794921875,-1.0041656494140625,95.23176574707031,-72.59506225585938,-66.01058959960938,,,,,,,,,,
1,2022-09-06 17:38:48.3680,00:12,60,0,2022-09-06 17:38:51.8430,1662457131.843055,-0.000311057215321255,-0.012899553372016806,-0.005834985948363611,0.0189971923828125,-0.031829833984375,-1.005462646484375,95.23176574707031,-72.59506225585938,-66.01058959960938,,,,,,,,,,
1,2022-09-06 17:38:48.3680,00:12,60,0,2022-09-06 17:38:51.8600,1662457131.8596911,-0.003411509356391504,-0.008154332941713619,-0.007846205203591451,0.018829345703125,-0.03216552734375,-1.0054168701171875,95.20393371582031,-72.30429077148438,-66.00102233886719,,,,,,,,,,
1,2022-09-06 17:38:48.3680,00:12,60,0,2022-09-06 17:38:51.8760,1662457131.8763309,-0.0023505059781039356,-0.010210293303254792,-0.007696801866438006,0.020111083984375,-0.032958984375,-1.0058746337890625,95.22749328613281,-72.44927978515625,-65.91035461425781,,,,,,,,,,
1,2022-09-06 17:38:48.3680,00:12,60,0,2022-09-06 17:38:51.8930,1662457131.892926,-0.002107892002797717,-0.009956760367479249,-0.00514123248439797,0.018829345703125,-0.032440185546875,-1.0051727294921875,95.15174865722656,-72.25257873535156,-66.29042053222656,,,,,,,,,,
1,2022-09-06 17:38:48.3680,00:12,60,0,2022-09-06 17:38:51.9100,1662457131.9096909,0.0005869607042534641,-0.010457434652414145,-0.006729808074630235,0.0190582275390625,-0.032684326171875,-1.0042724609375,95.22409057617188,-72.4608154296875,-66.97039794921875,,,,,,,,,,
1,2022-09-06 17:38:48.3680,00:12,60,0,2022-09-06 17:38:51.9270,1662457131.927227,-0.0029955235941211272,-0.007990814850782754,-0.008861402211129658,0.0196075439453125,-0.0325164794921875,-1.0068206787109375,95.02195739746094,-72.48988342285156,-66.40829467773438,,,,,,,,,,
1,2022-09-06 17:38:48.3680,00:12,60,0,2022-09-06 17:38:51.9430,1662457131.942728,-0.0019265307325633209,-0.010417220919953948,-0.0060714746531626475,0.0195465087890625,-0.032501220703125,-1.005279541015625,95.02195739746094,-72.48988342285156,-66.40829467773438,,,,,,,,,,
1,2022-09-06 17:38:48.3680,00:12,60,0,2022-09-06 17:38:51.9590,1662457131.959186,-0.002038916130564665,-0.010113354239575907,-0.008512528108329276,0.0192108154296875,-0.03253173828125,-1.0066070556640625,95.11279296875,-72.48748779296875,-66.58918762207031,,,,,,,,,,
1,2022-09-06 17:38:48.3680,00:12,60,0,2022-09-06 17:38:51.9770,1662457131.976538,-0.0010636665393776478,-0.009108277244180002,-0.0063963803061523146,0.0187225341796875,-0.0323638916015625,-1.0052490234375,95.25816345214844,-72.57353210449219,-67.0069580078125,,,,,,,,,,
1,2022-09-06 17:38:48.3680,00:12,60,0,2022-09-06 17:38:51.9930,1662457131.993057,0.001398425888400608,-0.0075990638544320985,-0.0067023775154024185,0.019256591796875,-0.032470703125,-1.0057373046875,95.03599548339844,-72.29318237304688,-67.22581481933594,,,,,,,,,,
1,2022-09-06 17:38:48.3680,00:12,60,0,2022-09-06 17:38:52.0100,1662457132.009873,-0.002286057479724018,-0.009463542933596573,-0.00867764409591419,0.01904296875,-0.0328826904296875,-1.006378173828125,94.74189758300781,-72.36424255371094,-66.87344360351562,,,,,,,,,,
1,2022-09-06 17:38:48.3680,00:12,60,0,2022-09-06 17:38:52.0260,1662457132.026393,-7.243798165015528e-05,-0.014167218050894523,-0.008898952782499775,0.0179443359375,-0.0311431884765625,-1.0050201416015625,94.998291015625,-72.43986511230469,-66.6724853515625,,,,,,,,,,
1,2022-09-06 17:38:48.3680,00:12,60,0,2022-09-06 17:38:52.0430,1662457132.043044,-0.0027992486217822874,-0.011502991696379253,-0.006622216366591034,0.019378662109375,-0.0329132080078125,-1.005401611328125,94.998291015625,-72.43986511230469,-66.6724853515625,,,,,,,,,,
1,2022-09-06 17:38:48.3680,00:12,60,0,2022-09-06 17:38:52.0600,1662457132.059864,-0.002937732998466408,-0.009113869882469169,-0.005914880781065988,0.01861572265625,-0.0325775146484375,-1.0069732666015625,95.00352478027344,-72.4378662109375,-66.775390625,,,,,,,,,,
1,2022-09-06 17:38:48.3680,00:12,60,0,2022-09-06 17:38:52.0760,1662457132.076309,-0.002886866621645894,-0.008748750497019306,-0.007158310694023984,0.019012451171875,-0.0325927734375,-1.004547119140625,95.16873168945312,-72.49754333496094,-67.28706359863281,,,,,,,,,,
1,2022-09-06 17:38:48.3680,00:12,60,0,2022-09-06 17:38:52.0930,1662457132.093001,-0.0022876553763780654,-0.008288289944544605,-0.006175071619566729,0.0186614990234375,-0.0323028564453125,-1.0055694580078125,94.93107604980469,-72.55586242675781,-67.16603088378906,,,,,,,,,,
1,2022-09-06 17:38:48.3680,00:12,60,0,2022-09-06 17:38:52.1100,1662457132.109787,-8.788431597261485e-05,-0.010022007814186188,-0.005862416507591427,0.0190277099609375,-0.032196044921875,-1.0059814453125,94.87855529785156,-72.21121215820312,-67.46780395507812,,,,,,,,,,
1,2022-09-06 17:38:48.3680,00:12,60,0,2022-09-06 17:38:52.1260,1662457132.126357,-0.0027800738619337168,-0.008458465938200668,-0.006910370396537607,0.019317626953125,-0.03289794921875,-1.0066375732421875,95.15328979492188,-71.97782897949219,-67.26655578613281,,,,,,,,,,
1,2022-09-06 17:38:48.3680,00:12,60,0,2022-09-06 17:38:52.1430,1662457132.1430311,-0.0009195895244043609,-0.007224623405166958,-0.006385993977901005,0.0181427001953125,-0.0316162109375,-1.004730224609375,95.15328979492188,-71.97782897949219,-67.26655578613281,,,,,,,,,,
1,2022-09-06 17:38:48.3680,00:12,60,0,2022-09-06 17:38:52.1600,1662457132.1598768,-0.0015510250188621483,-0.008240885677141195,-0.006637396384804485,0.0181121826171875,-0.03204345703125,-1.0063934326171875,95.35858154296875,-72.04008483886719,-67.16329956054688,,,,,,,,,,
1,2022-09-06 17:38:48.3680,00:12,60,0,2022-09-06 17:38:52.1760,1662457132.1764,-0.0007747135611040504,-0.009702162167267672,-0.004785966794981399,0.019195556640625,-0.0328521728515625,-1.0068511962890625,95.49989318847656,-72.57513427734375,-67.47198486328125,,,,,,,,,,
1,2022-09-06 17:38:48.3680,00:12,60,0,2022-09-06 17:38:52.1930,1662457132.193147,-0.0006655239564108016,-0.01076716028719036,-0.005558283511104378,0.01885986328125,-0.032501220703125,-1.0050048828125,95.53019714355469,-72.46916198730469,-66.95327758789062,,,,,,,,,,
1,2022-09-06 17:38:48.3680,00:12,60,0,2022-09-06 17:38:52.2100,1662457132.209851,-0.004058657501280759,-0.009455553450326335,-0.007710383987997411,0.0182647705078125,-0.0318145751953125,-1.00628662109375,95.29029846191406,-72.564697265625,-67.76557922363281,,,,,,,,,,
1,2022-09-06 17:38:48.3680,00:12,60,0,2022-09-06 17:38:52.2260,1662457132.226459,-9.560748313384465e-05,-0.008390821646512656,-0.0072057149614273945,0.019012451171875,-0.0329437255859375,-1.005889892578125,95.57473754882812,-73.12017822265625,-67.8038330078125,,,,,,,,,,
1,2022-09-06 17:38:48.3680,00:12,60,0,2022-09-06 17:38:52.2430,1662457132.2431831,-0.003083141593984734,-0.00735644987912588,-0.006780940767559756,0.019195556640625,-0.031494140625,-1.00579833984375,95.57473754882812,-73.12017822265625,-67.8038330078125,,,,,,,,,,
1,2022-09-06 17:38:48.3680,00:12,60,0,2022-09-06 17:38:52.2600,1662457132.259841,5.03337446024976e-05,-0.009386843894202291,-0.004808071032029057,0.019256591796875,-0.03265380859375,-1.005401611328125,95.33332824707031,-73.29864501953125,-66.4801025390625,,,,,,,,,,
1,2022-09-06 17:38:48.3680,00:12,60,0,2022-09-06 17:38:52.2770,1662457132.276526,-0.0012133361926401009,-0.01179327625519789,-0.006912500925409671,0.0187225341796875,-0.0326995849609375,-1.006134033203125,95.1834716796875,-73.0997314453125,-67.06492614746094,,,,,,,,,,
1,2022-09-06 17:38:48.3680,00:12,60,0,2022-09-06 17:38:52.2930,1662457132.2930899,-0.002313488038951834,-0.007256847654356916,-0.006006493522564714,0.019195556640625,-0.03192138671875,-1.005645751953125,95.08758544921875,-73.49195861816406,-67.428955078125,,,,,,,,,,
1,2022-09-06 17:38:48.3680,00:12,60,0,2022-09-06 17:38:52.3100,1662457132.309767,-0.0013310479128216032,-0.008859537998366602,-0.006099171528499471,0.018157958984375,-0.0325469970703125,-1.005279541015625,95.08992004394531,-73.33395385742188,-68.342529296875,,,,,,,,,,
1,2022-09-06 17:38:48.3680,00:12,60,0,2022-09-06 17:38:52.3270,1662457132.326509,-0.0046184539624154145,-0.010355169266555102,-0.005136172478326819,0.018585205078125,-0.0313720703125,-1.00616455078125,95.13034057617188,-73.36720275878906,-68.21694946289062,,,,,,,,,,
1,2022-09-06 17:38:48.3680,00:12,60,0,2022-09-06 17:38:52.3430,1662457132.343131,-0.004019775349365602,-0.008385229008223489,-0.005873335468060752,0.0184783935546875,-0.0313873291015625,-1.004913330078125,95.13034057617188,-73.36720275878906,-68.21694946289062,,,,,,,,,,
1,2022-09-06 17:38:48.3680,00:12,60,0,2022-09-06 17:38:52.3600,1662457132.359921,-0.00127884995545605,-0.009819607571340167,-0.005503422392648746,0.0185394287109375,-0.0323486328125,-1.0058441162109375,95.14500427246094,-73.35401916503906,-68.21121215820312,,,,,,,,,,
1,2022-09-06 17:38:48.3680,00:12,60,0,2022-09-06 17:38:52.3760,1662457132.376396,-0.003009372031789539,-0.009670204234186722,-0.0029475866944997007,0.0184173583984375,-0.0319366455078125,-1.004608154296875,95.12428283691406,-73.37733459472656,-68.55485534667969,,,,,,,,,,
1,2022-09-06 17:38:48.3680,00:12,60,0,2022-09-06 17:38:52.3930,1662457132.393009,-4.207794522325196e-05,-0.008551410260244434,-0.0078065241033492706,0.01898193359375,-0.0326995849609375,-1.0061492919921875,94.92674255371094,-73.1988525390625,-69.32347106933594,,,,,,,,,,
1,2022-09-06 17:38:48.3680,00:12,60,0,2022-09-06 17:38:52.4100,1662457132.40997,0.0012942962897785097,-0.008399077445891901,-0.0051377703749808665,0.018768310546875,-0.0322113037109375,-1.0053863525390625,95.12576293945312,-73.72105407714844,-69.10694885253906,,,,,,,,,,
1,2022-09-06 17:38:48.3680,00:12,60,0,2022-09-06 17:38:52.4270,1662457132.426556,-0.0016974988788165065,-0.00999617515161242,-0.0089636675969887,0.0191802978515625,-0.0318450927734375,-1.0063323974609375,94.88948059082031,-73.45559692382812,-69.19044494628906,,,,,,,,,,
1,2022-09-06 17:38:48.3680,00:12,60,0,2022-09-06 17:38:52.4430,1662457132.443042,-0.0031031153021603285,-0.010367153491460458,-0.008148473987315445,0.018798828125,-0.032745361328125,-1.0059661865234375,94.88948059082031,-73.45559692382812,-69.19044494628906,,,,,,,,,,
1,2022-09-06 17:38:48.3680,00:12,60,0,2022-09-06 17:38:52.4600,1662457132.459961,-0.00025326661966653557,-0.01065557383751604,-0.005954029249090153,0.0189056396484375,-0.032257080078125,-1.0053863525390625,94.78933715820312,-73.43028259277344,-69.56767272949219,,,,,,,,,,
1,2022-09-06 17:38:48.3680,00:12,60,0,2022-09-06 17:38:52.4770,1662457132.476575,0.0015342471039946491,-0.011096326997924153,-0.005633118337735605,0.01885986328125,-0.032501220703125,-1.00543212890625,94.89059448242188,-73.48785400390625,-70.08831787109375,,,,,,,,,,
1,2022-09-06 17:38:48.3680,00:12,60,0,2022-09-06 17:38:52.4930,1662457132.49313,-0.0019877834376351433,-0.006189186373344149,-0.004949751202021272,0.0185089111328125,-0.031646728515625,-1.00616455078125,94.91600036621094,-73.53126525878906,-70.44007873535156,,,,,,,,,,
1,2022-09-06 17:38:48.3680,00:12,60,0,2022-09-06 17:38:52.5100,1662457132.50969,-0.002388322865583061,-0.010602044299605448,-0.006596117387908257,0.0186920166015625,-0.0324859619140625,-1.0058135986328125,94.71824645996094,-73.15354919433594,-70.88526916503906,,,,,,,,,,
1,2022-09-06 17:38:48.3680,00:12,60,0,2022-09-06 17:38:52.5260,1662457132.526466,-0.0019419770668857804,-0.009644637887721961,-0.0078747010272553,0.0191650390625,-0.0313568115234375,-1.0049896240234375,94.89459228515625,-73.13749694824219,-70.19819641113281,,,,,,,,,,
1,2022-09-06 17:38:48.3680,00:12,60,0,2022-09-06 17:38:52.5430,1662457132.543263,-0.001307345779119898,-0.006723150171905037,-0.0071931981043040225,0.0186614990234375,-0.031951904296875,-1.0050811767578125,94.89459228515625,-73.13749694824219,-70.19819641113281,,,,,,,,,,
1,2022-09-06 17:38:48.3680,00:12,60,0,2022-09-06 17:38:52.5600,1662457132.559641,-0.0018719359302166966,-0.010641192767629612,-0.007024087375083991,0.01959228515625,-0.03228759765625,-1.00494384765625,94.82638549804688,-73.3519287109375,-70.16317749023438,,,,,,,,,,
1,2022-09-06 17:38:48.3680,00:12,60,0,2022-09-06 17:38:52.5770,1662457132.5765429,3.861583580614896e-05,-0.009166600472052738,-0.006407032950512631,0.0183258056640625,-0.032073974609375,-1.006256103515625,94.89395141601562,-73.17649841308594,-70.7916259765625,,,,,,,,,,
1,2022-09-06 17:38:48.3680,00:12,60,0,2022-09-06 17:38:52.5930,1662457132.5931659,-0.002314286987278858,-0.00810533077765616,-0.006950051496779788,0.0185699462890625,-0.031951904296875,-1.0047454833984375,94.75535583496094,-72.99333190917969,-71.12257385253906,,,,,,,,,,
1,2022-09-06 17:38:48.3680,00:12,60,0,2022-09-06 17:38:52.6100,1662457132.609775,-0.0010610033782875684,-0.010186591169553087,-0.0066688216856674205,0.0184478759765625,-0.0314483642578125,-1.0058135986328125,95.00830078125,-73.14341735839844,-70.65910339355469,,,,,,,,,,
1,2022-09-06 17:38:48.3680,00:12,60,0,2022-09-06 17:38:52.6270,1662457132.626536,-0.001377120599679974,-0.012730708958905783,-0.005460279182989462,0.0189361572265625,-0.03228759765625,-1.0059051513671875,94.95408630371094,-72.92144775390625,-71.13847351074219,,,,,,,,,,
1,2022-09-06 17:38:48.3680,00:12,60,0,2022-09-06 17:38:52.6430,1662457132.643084,-0.0013361079188927538,-0.009784187528842114,-0.006757238633858051,0.0197906494140625,-0.033111572265625,-1.006439208984375,94.95408630371094,-72.92144775390625,-71.13847351074219,,,,,,,,,,
1,2022-09-06 17:38:48.3680,00:12,60,0,2022-09-06 17:38:52.6600,1662457132.659696,-0.0008868326429963863,-0.01403299473195453,-0.007797469355643002,0.0197601318359375,-0.032073974609375,-1.005950927734375,94.79171752929688,-73.05787658691406,-70.01618957519531,,,,,,,,,,
1,2022-09-06 17:38:48.3680,00:12,60,0,2022-09-06 17:38:52.6760,1662457132.6763349,-0.00451139488659423,-0.007699731343637093,-0.005508216082610888,0.0190887451171875,-0.03228759765625,-1.0060272216796875,94.68516540527344,-73.00282287597656,-70.66683959960938,,,,,,,,,,
1,2022-09-06 17:38:48.3680,00:12,60,0,2022-09-06 17:38:52.6930,1662457132.69295,-0.0020754014374987505,-0.007440073137354368,-0.0039966058478819125,0.0194854736328125,-0.03179931640625,-1.0067291259765625,94.89183044433594,-73.15170288085938,-70.69975280761719,,,,,,,,,,
1,2022-09-06 17:38:48.3680,00:12,60,0,2022-09-06 17:38:52.7100,1662457132.709806,-0.0021513015285660087,-0.007536479568815236,-0.007633684948603128,0.0186004638671875,-0.0313568115234375,-1.0052032470703125,94.72163391113281,-73.08428955078125,-70.495849609375,,,,,,,,,,
1,2022-09-06 17:38:48.3680,00:12,60,0,2022-09-06 17:38:52.7260,1662457132.726414,-0.0017925737297323353,-0.009712015863300966,-0.006708769102018609,0.018157958984375,-0.030975341796875,-1.0056610107421875,94.83648681640625,-73.23333740234375,-70.34544372558594,,,,,,,,,,
1,2022-09-06 17:38:48.3680,00:12,60,0,2022-09-06 17:38:52.7430,1662457132.743103,-0.0016996294076885698,-0.009320797499168325,-0.006376140281867712,0.0186614990234375,-0.0326690673828125,-1.005462646484375,95.1302490234375,-73.3397216796875,-69.55081176757812,,,,,,,,,,
1,2022-09-06 17:38:48.3680,00:12,60,0,2022-09-06 17:38:52.7600,1662457132.759803,-0.00225117006944398,-0.009642507358849898,-0.005346828520552086,0.0198211669921875,-0.03228759765625,-1.0057525634765625,95.1302490234375,-73.3397216796875,-69.55081176757812,,,,,,,,,,
1,2022-09-06 17:38:48.3680,00:12,60,0,2022-09-06 17:38:52.7760,1662457132.776321,0.00016911072922003162,-0.010027334136366348,-0.006290386494767161,0.0190582275390625,-0.0326385498046875,-1.0051422119140625,95.36782836914062,-73.14814758300781,-69.10554504394531,,,,,,,,,,
1,2022-09-06 17:38:48.3680,00:12,60,0,2022-09-06 17:38:52.7930,1662457132.7925549,-0.003440804128382376,-0.010072874191006703,-0.006521548877386038,0.0186767578125,-0.0330963134765625,-1.00531005859375,95.41993713378906,-73.23570251464844,-68.92837524414062,,,,,,,,,,
1,2022-09-06 17:38:48.3680,00:12,60,0,2022-09-06 17:38:52.8100,1662457132.809925,-6.92421883420602e-05,-0.011036938505615388,-0.003844805665747396,0.019134521484375,-0.032379150390625,-1.0062103271484375,95.61320495605469,-73.5902099609375,-69.11758422851562,,,,,,,,,,
1,2022-09-06 17:38:48.3680,00:12,60,0,2022-09-06 17:38:52.8260,1662457132.826458,-0.003157443788397945,-0.008609200855899153,-0.004176635537571269,0.019744873046875,-0.0322418212890625,-1.00592041015625,95.47381591796875,-73.48867797851562,-68.59111022949219,,,,,,,,,,
1,2022-09-06 17:38:48.3680,00:12,60,0,2022-09-06 17:38:52.8430,1662457132.8429909,-0.0027278759045681637,-0.009216135268328212,-0.006436860354721519,0.01910400390625,-0.0322723388671875,-1.0052642822265625,95.3016357421875,-73.66316223144531,-68.09381103515625,,,,,,,,,,
1,2022-09-06 17:38:48.3680,00:12,60,0,2022-09-06 17:38:52.8600,1662457132.859733,-0.0035744948151043535,-0.009688846361817277,-0.005401955955116727,0.0201416015625,-0.031402587890625,-1.0063323974609375,95.3016357421875,-73.66316223144531,-68.09381103515625,,,,,,,,,,
1,2022-09-06 17:38:48.3680,00:12,60,0,2022-09-06 17:38:52.8760,1662457132.8763452,0.00022077605436756885,-0.007944209531706367,-0.007538077465469284,0.019317626953125,-0.0323638916015625,-1.005828857421875,95.11581420898438,-73.27891540527344,-68.51155090332031,,,,,,,,,,
1,2022-09-06 17:38:48.3680,00:12,60,0,2022-09-06 17:38:52.8930,1662457132.892991,-0.0011278487216485574,-0.01146890323442624,-0.007336476170950286,0.0186004638671875,-0.0325775146484375,-1.0054931640625,94.80819702148438,-73.084716796875,-68.941650390625,,,,,,,,,,
1,2022-09-06 17:38:48.3680,00:12,60,0,2022-09-06 17:38:52.9100,1662457132.909724,-0.000811198868038136,-0.010807906651868572,-0.006999053660837246,0.0192718505859375,-0.0322723388671875,-1.006439208984375,94.77581787109375,-73.18659973144531,-69.12931823730469,,,,,,,,,,
1,2022-09-06 17:38:48.3680,00:12,60,0,2022-09-06 17:38:52.9260,1662457132.9264421,-0.0004655205585458508,-0.007895739999866926,-0.0048703890015369105,0.018646240234375,-0.0323028564453125,-1.0056304931640625,94.48348999023438,-73.11886596679688,-69.35160827636719,,,,,,,,,,
1,2022-09-06 17:38:48.3680,00:12,60,0,2022-09-06 17:38:52.9430,1662457132.943088,-0.0017923074136233274,-0.009350624903377213,-0.005988650343261183,0.01776123046875,-0.03240966796875,-1.0062255859375,94.46792602539062,-73.65243530273438,-68.95156860351562,,,,,,,,,,
1,2022-09-06 17:38:48.3680,00:12,60,0,2022-09-06 17:38:52.9600,1662457132.959852,-0.0006775081813161582,-0.01081589613513881,-0.004915929056177265,0.018951416015625,-0.0322265625,-1.005706787109375,94.46792602539062,-73.65243530273438,-68.95156860351562,,,,,,,,,,
1,2022-09-06 17:38:48.3680,00:12,60,0,2022-09-06 17:38:52.9760,1662457132.9764218,-0.003488741028003802,-0.007854461002970697,-0.0069093051321015755,0.01934814453125,-0.0324554443359375,-1.0063323974609375,94.510986328125,-73.29154968261719,-70.400146484375,,,,,,,,,,
1,2022-09-06 17:38:48.3680,00:12,60,0,2022-09-06 17:38:52.9930,1662457132.99305,0.000503603762133984,-0.010958641569567057,-0.007820372541017683,0.0189666748046875,-0.0322723388671875,-1.0061798095703125,94.61611938476562,-73.42214965820312,-70.09904479980469,,,,,,,,,,
1,2022-09-06 17:38:48.3680,00:12,60,0,2022-09-06 17:38:53.0100,1662457133.009835,-0.0017696705443576539,-0.010090717370310233,-0.006793723940792137,0.0193023681640625,-0.0316619873046875,-1.006866455078125,94.25506591796875,-72.90689086914062,-70.68559265136719,,,,,,,,,,
1,2022-09-06 17:38:48.3680,00:12,60,0,2022-09-06 17:38:53.0260,1662457133.0263638,-0.003949734212696518,-0.009692841103452395,-0.0073596456724339746,0.0193634033203125,-0.032501220703125,-1.0051727294921875,94.49122619628906,-73.356689453125,-70.88906860351562,,,,,,,,,,
1,2022-09-06 17:38:48.3680,00:12,60,0,2022-09-06 17:38:53.0430,1662457133.0432491,-0.002531334616120316,-0.011914450084796496,-0.008980711827965207,0.0184173583984375,-0.031890869140625,-1.0059967041015625,94.45857238769531,-73.45381164550781,-70.71015930175781,,,,,,,,,,
1,2022-09-06 17:38:48.3680,00:12,60,0,2022-09-06 17:38:53.0600,1662457133.059762,-0.00019760655288387949,-0.008522648120471578,-0.0052687979006127645,0.01910400390625,-0.031524658203125,-1.0065765380859375,94.45857238769531,-73.45381164550781,-70.71015930175781,,,,,,,,,,
1,2022-09-06 17:38:48.3680,00:12,60,0,2022-09-06 17:38:53.0760,1662457133.0764,-0.0016418388120338504,-0.011097924894578202,-0.005032042879704721,0.0194549560546875,-0.032440185546875,-1.005523681640625,94.48468017578125,-73.49671936035156,-70.49299621582031,,,,,,,,,,
1,2022-09-06 17:38:48.3680,00:12,60,0,2022-09-06 17:38:53.0930,1662457133.093007,-0.0018988338572264968,-0.00908404247826028,-0.0066009110778703995,0.0189056396484375,-0.031890869140625,-1.0058746337890625,94.40142822265625,-73.34872436523438,-70.85137939453125,,,,,,,,,,
1,2022-09-06 17:38:48.3680,00:12,60,0,2022-09-06 17:38:53.1100,1662457133.1101031,0.002439988190730598,-0.01180233100290416,-0.0058235343556762706,0.01873779296875,-0.0323333740234375,-1.006011962890625,94.60270690917969,-73.46736145019531,-69.03826904296875,,,,,,,,,,
1,2022-09-06 17:38:48.3680,00:12,60,0,2022-09-06 17:38:53.1250,1662457133.1253839,-0.0013190636879162466,-0.008411327986906266,-0.007901865270374108,0.01910400390625,-0.0318756103515625,-1.0064239501953125,94.721923828125,-73.49560546875,-70.94502258300781,,,,,,,,,,
1,2022-09-06 17:38:48.3680,00:12,60,0,2022-09-06 17:38:53.1440,1662457133.144036,-0.0016855146539111498,-0.008528507074869752,-0.0062179485131170055,0.0189361572265625,-0.032440185546875,-1.0052642822265625,94.74992370605469,-73.19795227050781,-70.10313415527344,,,,,,,,,,
1,2022-09-06 17:38:48.3680,00:12,60,0,2022-09-06 17:38:53.1600,1662457133.160209,-0.0008349010017398412,-0.008947155998230209,-0.007322361417172865,0.0184478759765625,-0.031951904296875,-1.005767822265625,94.74992370605469,-73.19795227050781,-70.10313415527344,,,,,,,,,,
1,2022-09-06 17:38:48.3680,00:12,60,0,2022-09-06 17:38:53.1760,1662457133.176437,-0.0003233077563356195,-0.00953970934077284,-0.006052299893314077,0.0185089111328125,-0.0318603515625,-1.00531005859375,94.71186828613281,-73.17953491210938,-70.65341186523438,,,,,,,,,,
1,2022-09-06 17:38:48.3680,00:12,60,0,2022-09-06 17:38:53.1930,1662457133.1929321,-0.0028208202266119292,-0.010672884384601554,-0.005453088648046248,0.01922607421875,-0.032684326171875,-1.0067291259765625,94.65583801269531,-73.14503479003906,-70.81930541992188,,,,,,,,,,
1,2022-09-06 17:38:48.3680,00:12,60,0,2022-09-06 17:38:53.2100,1662457133.209871,-0.002202966853713546,-0.011881426887279513,-0.005527657158568467,0.0189056396484375,-0.03253173828125,-1.004669189453125,94.66378784179688,-73.45860290527344,-70.7237548828125,,,,,,,,,,
1,2022-09-06 17:38:48.3680,00:12,60,0,2022-09-06 17:38:53.2260,1662457133.226362,-0.0011595403386205003,-0.008782572642863312,-0.00505015237511726,0.018951416015625,-0.031494140625,-1.0063629150390625,94.68780517578125,-73.60031127929688,-70.91816711425781,,,,,,,,,,
1,2022-09-06 17:38:48.3680,00:12,60,0,2022-09-06 17:38:53.2430,1662457133.24297,-0.0023742081118056407,-0.010598315874079337,-0.005632319389408581,0.0194091796875,-0.032379150390625,-1.005340576171875,94.70219421386719,-73.23408508300781,-70.13249206542969,,,,,,,,,,
1,2022-09-06 17:38:48.3680,00:12,60,0,2022-09-06 17:38:53.2600,1662457133.259657,0.0009952232993626112,-0.011539210687204331,-0.0049707901746328985,0.018890380859375,-0.03289794921875,-1.0059051513671875,94.70219421386719,-73.23408508300781,-70.13249206542969,,,,,,,,,,
1,2022-09-06 17:38:48.3680,00:12,60,0,2022-09-06 17:38:53.2760,1662457133.276394,-0.003909520480236322,-0.008923187548419495,-0.007730357696173005,0.0192718505859375,-0.0321197509765625,-1.0059814453125,94.66746520996094,-73.40766906738281,-70.10227966308594,,,,,,,,,,
1,2022-09-06 17:38:48.3680,00:12,60,0,2022-09-06 17:38:53.2930,1662457133.293017,-0.0008016114881138507,-0.009040366636382982,-0.004930576442172702,0.0197601318359375,-0.0306854248046875,-1.005706787109375,94.71940612792969,-73.32583618164062,-69.09222412109375,,,,,,,,,,
1,2022-09-06 17:38:48.3680,00:12,60,0,2022-09-06 17:38:53.3100,1662457133.309816,0.000370445707630022,-0.009746903273581005,-0.007105846420549423,0.018218994140625,-0.0325469970703125,-1.0055999755859375,94.85183715820312,-73.69715881347656,-69.5294189453125,,,,,,,,,,
1,2022-09-06 17:38:48.3680,00:12,60,0,2022-09-06 17:38:53.3260,1662457133.326432,-0.002611229448822693,-0.009821738100212231,-0.00402004166547461,0.01873779296875,-0.0323638916015625,-1.0058441162109375,94.66148376464844,-73.05253601074219,-69.29023742675781,,,,,,,,,,
1,2022-09-06 17:38:48.3680,00:12,60,0,2022-09-06 17:38:53.3430,1662457133.343107,0.0004918858533376353,-0.010410296701119742,-0.005597964611346559,0.018646240234375,-0.0327301025390625,-1.0057373046875,94.75064086914062,-73.20053100585938,-69.64559936523438,,,,,,,,,,
1,2022-09-06 17:38:48.3680,00:12,60,0,2022-09-06 17:38:53.3600,1662457133.359652,-0.0007337008803168302,-0.00903930137194695,-0.006751113363350869,0.019012451171875,-0.0320281982421875,-1.0055694580078125,94.75064086914062,-73.20053100585938,-69.64559936523438,,,,,,,,,,
1,2022-09-06 17:38:48.3680,00:12,60,0,2022-09-06 17:38:53.3760,1662457133.376391,-0.0003792341392272835,-0.006397711886697354,-0.00764247338020039,0.0189666748046875,-0.0330810546875,-1.00531005859375,94.61433410644531,-73.1336669921875,-69.81883239746094,,,,,,,,,,
1,2022-09-06 17:38:48.3680,00:12,60,0,2022-09-06 17:38:53.3930,1662457133.393029,-0.001129712934411613,-0.009077650891644092,-0.006997189448074191,0.0190582275390625,-0.032012939453125,-1.005889892578125,94.59040832519531,-73.22883605957031,-70.12699890136719,,,,,,,,,,
1,2022-09-06 17:38:48.3680,00:12,60,0,2022-09-06 17:38:53.4100,1662457133.40971,-6.844324001503642e-05,-0.00957406411883486,-0.0073436667058934995,0.0192718505859375,-0.0323028564453125,-1.0053863525390625,94.69364929199219,-73.19137573242188,-70.2003173828125,,,,,,,,,,
1,2022-09-06 17:38:48.3680,00:12,60,0,2022-09-06 17:38:53.4270,1662457133.426522,-0.00025539714853859894,-0.007571633295204282,-0.0056211341128302485,0.019317626953125,-0.03155517578125,-1.0066070556640625,94.68089294433594,-73.07313537597656,-69.92076110839844,,,,,,,,,,
1,2022-09-06 17:38:48.3680,00:12,60,0,2022-09-06 17:38:53.4430,1662457133.4431949,-0.002331597534364373,-0.007998005385725968,-0.006830741879944238,0.019195556640625,-0.03289794921875,-1.0058135986328125,94.70857238769531,-73.37155151367188,-69.71293640136719,,,,,,,,,,
1,2022-09-06 17:38:48.3680,00:12,60,0,2022-09-06 17:38:53.4600,1662457133.460095,-0.00079015989542651,-0.009844108653368896,-0.005907423930013766,0.018951416015625,-0.032073974609375,-1.0047607421875,94.70857238769531,-73.37155151367188,-69.71293640136719,,,,,,,,,,
