SessionID,SessionDate,SessionDuration,SessionFrequency,RecordID,Timestamp,timeIntervalSince1970,GyroX,GyroY,GyroZ,AccX,AccY,AccZ,MagX,MagY,MagZ,WatchTimestamp,WatchtImeIntervalSince1970,WatchGyroX,WatchGyroY,WatchGyroZ,WatchAccX,WatchAccY,WatchAccZ
0,2022-09-06 20:00:34.3440,00:18,60,0,2022-09-06 20:00:34.3780,1662465634.3777928,-0.0009819074939122151,-0.008211857221259332,-0.006009689315872809,-0.004058837890625,-0.0089569091796875,-1.003753662109375,99.20245361328125,-61.602081298828125,-68.75569152832031,2022-09-06 20:00:34.1340,1662465634.134385,0.21527299284934998,-0.3202080726623535,0.26898711919784546,-0.1326141357421875,-0.1543426513671875,-0.99371337890625,
0,2022-09-06 20:00:34.3440,00:18,60,0,2022-09-06 20:00:34.3780,1662465634.3777928,-0.0009819074939122151,-0.008211857221259332,-0.006009689315872809,-0.004058837890625,-0.0089569091796875,-1.003753662109375,99.20245361328125,-61.602081298828125,-68.75569152832031,2022-09-06 20:00:34.1340,1662465634.13445,0.25352025032043457,-0.3576989769935608,0.31057438254356384,-0.1236724853515625,-0.1225433275103569,-1.001190185546875,
0,2022-09-06 20:00:34.3440,00:18,60,0,2022-09-06 20:00:34.3950,1662465634.394779,0.0017923074136233274,-0.00474601937863021,-0.008233162509979965,-0.0014801025390625,-0.007965087890625,-1.004150390625,99.20245361328125,-61.602081298828125,-68.75569152832031,2022-09-06 20:00:34.1340,1662465634.1344628,0.3323780298233032,-0.40121209621429443,0.3444264829158783,-0.1435394585132599,-0.1365509331226349,-0.971954345703125,
0,2022-09-06 20:00:34.3440,00:18,60,0,2022-09-06 20:00:34.3950,1662465634.394779,0.0017923074136233274,-0.00474601937863021,-0.008233162509979965,-0.0014801025390625,-0.007965087890625,-1.004150390625,99.20245361328125,-61.602081298828125,-68.75569152832031,2022-09-06 20:00:34.1650,1662465634.1653981,0.21031898260116577,-0.3779597580432892,0.3118991255760193,-0.14950565993785858,-0.17913822829723358,-0.966552734375,
0,2022-09-06 20:00:34.3440,00:18,60,0,2022-09-06 20:00:34.4110,1662465634.4114509,0.0004982774399538254,-0.004505535932196055,-0.008798551609403788,-0.003662109375,-0.0092926025390625,-1.005157470703125,99.32951354980469,-61.7855224609375,-68.45869445800781,2022-09-06 20:00:34.1930,1662465634.193211,0.12389007955789566,-0.379159539937973,0.3466072082519531,-0.15815740823745728,-0.17114263772964478,-0.9593810439109802,
0,2022-09-06 20:00:34.3440,00:18,60,0,2022-09-06 20:00:34.4110,1662465634.4114509,0.0004982774399538254,-0.004505535932196055,-0.008798551609403788,-0.003662109375,-0.0092926025390625,-1.005157470703125,99.32951354980469,-61.7855224609375,-68.45869445800781,2022-09-06 20:00:34.2230,1662465634.223218,0.23314200341701508,-0.4061890244483948,0.36921146512031555,-0.14729318022727966,-0.15040597319602966,-0.9655914306640625,
0,2022-09-06 20:00:34.3440,00:18,60,0,2022-09-06 20:00:34.4270,1662465634.427424,0.003789944547291764,-0.0035923379944078843,-0.007267500298717233,-0.003204345703125,-0.009429931640625,-1.0055389404296875,99.281005859375,-61.58917236328125,-69.0712890625,2022-09-06 20:00:34.2530,1662465634.253031,0.24378053843975067,-0.40462279319763184,0.3823355436325073,-0.16844189167022705,-0.16578686237335205,-0.9329833984375,
0,2022-09-06 20:00:34.3440,00:18,60,0,2022-09-06 20:00:34.4270,1662465634.427424,0.003789944547291764,-0.0035923379944078843,-0.007267500298717233,-0.003204345703125,-0.009429931640625,-1.0055389404296875,99.281005859375,-61.58917236328125,-69.0712890625,2022-09-06 20:00:34.2830,1662465634.283004,0.061339084059000015,-0.3152415156364441,0.3506762981414795,-0.19006362557411194,-0.18571487069129944,-0.888671875,
0,2022-09-06 20:00:34.3440,00:18,60,0,2022-09-06 20:00:34.4440,1662465634.444428,0.00526293894621459,-0.0002324939631639175,-0.006508233071935642,-0.003204345703125,-0.011016845703125,-1.0053863525390625,99.16096496582031,-61.84600830078125,-69.33056640625,2022-09-06 20:00:34.3130,1662465634.3128219,0.24243882298469543,-0.2381078451871872,0.3941017985343933,-0.20045487582683563,-0.15135209262371063,-0.9083251953125,
0,2022-09-06 20:00:34.3440,00:18,60,0,2022-09-06 20:00:34.4440,1662465634.444428,0.00526293894621459,-0.0002324939631639175,-0.006508233071935642,-0.003204345703125,-0.011016845703125,-1.0053863525390625,99.16096496582031,-61.84600830078125,-69.33056640625,2022-09-06 20:00:34.3430,1662465634.342939,0.31405308842658997,-0.17905518412590027,0.37261834740638733,-0.2086489200592041,-0.2024843543767929,-0.9377898573875427,
0,2022-09-06 20:00:34.3440,00:18,60,0,2022-09-06 20:00:34.4610,1662465634.461201,0.002177666823357793,-0.005080246095435155,-0.0068682924513143555,-0.0027923583984375,-0.0111236572265625,-1.007110595703125,99.19975280761719,-61.72709655761719,-69.29261779785156,2022-09-06 20:00:34.3730,1662465634.372585,0.14338494837284088,-0.1532512754201889,0.34176182746887207,-0.2009585052728653,-0.1886904388666153,-0.9509735107421875,
0,2022-09-06 20:00:34.3440,00:18,60,0,2022-09-06 20:00:34.4610,1662465634.461201,0.002177666823357793,-0.005080246095435155,-0.0068682924513143555,-0.0027923583984375,-0.0111236572265625,-1.007110595703125,99.19975280761719,-61.72709655761719,-69.29261779785156,2022-09-06 20:00:34.4030,1662465634.402612,0.20990271866321564,-0.13391193747520447,0.3027290403842926,-0.2103884369134903,-0.1576388031244278,-0.9349669814109802,
0,2022-09-06 20:00:34.3440,00:18,60,0,2022-09-06 20:00:34.4780,1662465634.477581,-0.00028202875943939134,-0.006776147077597614,-0.008262457281970836,-0.0021209716796875,-0.0106353759765625,-1.00677490234375,99.25807189941406,-61.4188232421875,-69.26416015625,2022-09-06 20:00:34.4370,1662465634.437334,0.10194270312786102,-0.08909440785646439,0.2662913501262665,-0.23011811077594757,-0.19688445329666138,-0.9401244521141052,
0,2022-09-06 20:00:34.3440,00:18,60,0,2022-09-06 20:00:34.4780,1662465634.477581,-0.00028202875943939134,-0.006776147077597614,-0.008262457281970836,-0.0021209716796875,-0.0106353759765625,-1.00677490234375,99.25807189941406,-61.4188232421875,-69.26416015625,2022-09-06 20:00:34.4620,1662465634.462286,0.14337269961833954,-0.07138358801603317,0.2743755280971527,-0.24235565960407257,-0.17243987321853638,-0.9537200331687927,
0,2022-09-06 20:00:34.3440,00:18,60,0,2022-09-06 20:00:34.4950,1662465634.494523,-0.0020897825073851782,-0.013040967225900013,-0.01080178138136139,-0.0029754638671875,-0.0101165771484375,-1.0068206787109375,99.25807189941406,-61.4188232421875,-69.26416015625,2022-09-06 20:00:34.4920,1662465634.492204,0.11300760507583618,-0.06143161281943321,0.21434231102466583,-0.25328095257282257,-0.19450406730175018,-0.9433287978172302,
0,2022-09-06 20:00:34.3440,00:18,60,0,2022-09-06 20:00:34.4950,1662465634.494523,-0.0020897825073851782,-0.013040967225900013,-0.01080178138136139,-0.0029754638671875,-0.0101165771484375,-1.0068206787109375,99.25807189941406,-61.4188232421875,-69.26416015625,2022-09-06 20:00:34.5220,1662465634.522122,0.01882384717464447,-0.07163232564926147,0.19023852050304413,-0.25416597723960876,-0.17367582023143768,-0.9588469862937927,
0,2022-09-06 20:00:34.3440,00:18,60,0,2022-09-06 20:00:34.5110,1662465634.5108051,-0.00304132996487049,-0.011760519373789916,-0.008448878558276383,-0.00274658203125,-0.0107574462890625,-1.0076904296875,99.2750244140625,-61.670684814453125,-69.02928161621094,2022-09-06 20:00:34.5520,1662465634.55198,0.04727945476770401,-0.09984798729419708,0.20076590776443481,-0.252090722322464,-0.1574861854314804,-0.9473723769187927,
0,2022-09-06 20:00:34.3440,00:18,60,0,2022-09-06 20:00:34.5110,1662465634.5108051,-0.00304132996487049,-0.011760519373789916,-0.008448878558276383,-0.00274658203125,-0.0107574462890625,-1.0076904296875,99.2750244140625,-61.670684814453125,-69.02928161621094,2022-09-06 20:00:34.5820,1662465634.581636,0.19764180481433868,-0.13391965627670288,0.25517982244491577,-0.23350553214550018,-0.1342623084783554,-0.9369048476219177,
0,2022-09-06 20:00:34.3440,00:18,60,0,2022-09-06 20:00:34.5280,1662465634.527666,-0.006397179254479338,-0.012708871037967133,-0.008663263026027762,-0.0026702880859375,-0.009765625,-1.0070953369140625,99.36875915527344,-61.57389831542969,-69.72134399414062,2022-09-06 20:00:34.6130,1662465634.612817,0.15011928975582123,-0.1570313721895218,0.24594174325466156,-0.26033052802085876,-0.2000582367181778,-0.9309996962547302,
0,2022-09-06 20:00:34.3440,00:18,60,0,2022-09-06 20:00:34.5280,1662465634.527666,-0.006397179254479338,-0.012708871037967133,-0.008663263026027762,-0.0026702880859375,-0.009765625,-1.0070953369140625,99.36875915527344,-61.57389831542969,-69.72134399414062,2022-09-06 20:00:34.6420,1662465634.641674,-0.04119448363780975,-0.14929914474487305,0.17700906097888947,-0.27612343430519104,-0.18693570792675018,-0.9347838759422302,
0,2022-09-06 20:00:34.3440,00:18,60,0,2022-09-06 20:00:34.5470,1662465634.547223,-0.005834985948363611,-0.01173575197565218,-0.01022840279866733,-0.0029754638671875,-0.009674072265625,-1.00787353515625,99.15861511230469,-61.32359313964844,-69.33526611328125,2022-09-06 20:00:34.6710,1662465634.671486,-0.036807987838983536,-0.09297223389148712,0.1683022379875183,-0.27490273118019104,-0.15357999503612518,-0.9189757704734802,
0,2022-09-06 20:00:34.3440,00:18,60,0,2022-09-06 20:00:34.5470,1662465634.547223,-0.005834985948363611,-0.01173575197565218,-0.01022840279866733,-0.0029754638671875,-0.009674072265625,-1.00787353515625,99.15861511230469,-61.32359313964844,-69.33526611328125,2022-09-06 20:00:34.7010,1662465634.70122,0.1704796850681305,-0.10968250781297684,0.2750973701477051,-0.22961464524269104,-0.12876920402050018,-0.9420470595359802,
0,2022-09-06 20:00:34.3440,00:18,60,0,2022-09-06 20:00:34.5610,1662465634.561071,-0.00556707194270164,-0.014038853686352704,-0.008855010624513467,-0.0030670166015625,-0.0092010498046875,-1.00592041015625,99.27198791503906,-61.64195251464844,-69.56086730957031,2022-09-06 20:00:34.7310,1662465634.731497,-0.048832427710294724,-0.12596160173416138,0.34515461325645447,-0.24606364965438843,-0.24810819327831268,-0.9380797743797302,
0,2022-09-06 20:00:34.3440,00:18,60,0,2022-09-06 20:00:34.5610,1662465634.561071,-0.00556707194270164,-0.014038853686352704,-0.008855010624513467,-0.0030670166015625,-0.0092010498046875,-1.00592041015625,99.27198791503906,-61.64195251464844,-69.56086730957031,2022-09-06 20:00:34.7610,1662465634.761201,-0.0629863291978836,-0.10369572043418884,0.3011956810951233,-0.2436375617980957,-0.19606050848960876,-0.9102172255516052,
0,2022-09-06 20:00:34.3440,00:18,60,0,2022-09-06 20:00:34.5770,1662465634.577476,-0.0055321845324216015,-0.01705648151752149,-0.012039352339921212,-0.002899169921875,-0.0096435546875,-1.0062103271484375,99.06591796875,-61.22822570800781,-69.70326232910156,2022-09-06 20:00:34.7910,1662465634.790987,0.012373671866953373,-0.020595235750079155,0.32870879769325256,-0.283173143863678,-0.15037570893764496,-0.9261626601219177,
0,2022-09-06 20:00:34.3440,00:18,60,0,2022-09-06 20:00:34.5770,1662465634.577476,-0.0055321845324216015,-0.01705648151752149,-0.012039352339921212,-0.002899169921875,-0.0096435546875,-1.0062103271484375,99.06591796875,-61.22822570800781,-69.70326232910156,2022-09-06 20:00:34.8210,1662465634.8208761,-0.02246393822133541,0.0662965178489685,0.3759452700614929,-0.2767797112464905,-0.12986789643764496,-0.922927737236023,
0,2022-09-06 20:00:34.3440,00:18,60,0,2022-09-06 20:00:34.5950,1662465634.5948129,-0.0038258972220078335,-0.011815114176136541,-0.010186324853444078,-0.0025634765625,-0.0104522705078125,-1.005889892578125,99.06591796875,-61.22822570800781,-69.70326232910156,2022-09-06 20:00:34.8510,1662465634.85078,0.1269702911376953,0.06814634799957275,0.34886035323143005,-0.25218257308006287,-0.11073337495326996,-0.9559630155563354,
0,2022-09-06 20:00:34.3440,00:18,60,0,2022-09-06 20:00:34.5950,1662465634.5948129,-0.0038258972220078335,-0.011815114176136541,-0.010186324853444078,-0.0025634765625,-0.0104522705078125,-1.005889892578125,99.06591796875,-61.22822570800781,-69.70326232910156,2022-09-06 20:00:34.8810,1662465634.880625,0.07113339006900787,0.10522154718637466,0.2952177822589874,-0.30615296959877014,-0.23637430369853973,-0.9215391874313354,
0,2022-09-06 20:00:34.3440,00:18,60,0,2022-09-06 20:00:34.6120,1662465634.612235,-0.0034280209551499955,-0.011230550316864147,-0.01125984508885502,-0.0042572021484375,-0.0106048583984375,-1.00518798828125,99.2850341796875,-61.47770690917969,-68.74642944335938,2022-09-06 20:00:34.9110,1662465634.910503,0.058570995926856995,0.2938055694103241,0.1499701887369156,-0.31018128991127014,-0.12022437155246735,-0.9832457304000854,
0,2022-09-06 20:00:34.3440,00:18,60,0,2022-09-06 20:00:34.6120,1662465634.612235,-0.0034280209551499955,-0.011230550316864147,-0.01125984508885502,-0.0042572021484375,-0.0106048583984375,-1.00518798828125,99.2850341796875,-61.47770690917969,-68.74642944335938,2022-09-06 20:00:34.9400,1662465634.940425,0.3256506323814392,0.335689902305603,0.09842593967914581,-0.27751225233078003,-0.07525676488876343,-1.044570803642273,
0,2022-09-06 20:00:34.3440,00:18,60,0,2022-09-06 20:00:34.6280,1662465634.627995,-0.0020088224102467692,-0.0059305934314974555,-0.01024518071353483,-0.00164794921875,-0.00848388671875,-1.0052642822265625,99.32501220703125,-61.36723327636719,-69.12983703613281,2022-09-06 20:00:34.9700,1662465634.970299,0.15635640919208527,0.32148486375808716,-0.1743931770324707,-0.29298464953899384,-0.175232395529747,-1.046218752861023,
0,2022-09-06 20:00:34.3440,00:18,60,0,2022-09-06 20:00:34.6280,1662465634.627995,-0.0020088224102467692,-0.0059305934314974555,-0.01024518071353483,-0.00164794921875,-0.00848388671875,-1.0052642822265625,99.32501220703125,-61.36723327636719,-69.12983703613281,2022-09-06 20:00:35.0000,1662465635.0003982,0.500594973564148,0.28635963797569275,-0.40540409088134766,-0.30177372694015503,-0.06504875421524048,-1.0228270292282104,
0,2022-09-06 20:00:34.3440,00:18,60,0,2022-09-06 20:00:34.6440,1662465634.644372,0.0016527577725031753,-0.004893292186911593,-0.007636348109693208,-0.0050506591796875,-0.0104522705078125,-1.005279541015625,99.16488647460938,-60.90473937988281,-69.65812683105469,2022-09-06 20:00:35.0300,1662465635.03024,0.5647393465042114,0.2665262818336487,-0.5329263210296631,-0.3692937344312668,-0.2154850959777832,-1.0299071073532104,
0,2022-09-06 20:00:34.3440,00:18,60,0,2022-09-06 20:00:34.6440,1662465634.644372,0.0016527577725031753,-0.004893292186911593,-0.007636348109693208,-0.0050506591796875,-0.0104522705078125,-1.005279541015625,99.16488647460938,-60.90473937988281,-69.65812683105469,2022-09-06 20:00:35.0600,1662465635.06,0.6070394515991211,0.28446081280708313,-0.6016546487808228,-0.3701024055480957,-0.1559453308582306,-0.9800261855125427,
0,2022-09-06 20:00:34.3440,00:18,60,0,2022-09-06 20:00:34.6610,1662465634.660814,0.001580053474744012,-0.009162339414308612,-0.004862399518266673,-0.00421142578125,-0.0102691650390625,-1.00531005859375,99.340087890625,-61.19911193847656,-69.64610290527344,2022-09-06 20:00:35.0900,1662465635.089927,0.42199236154556274,0.2537851631641388,-0.6448408961296082,-0.3547062277793884,-0.1891789734363556,-1.0048674941062927,
0,2022-09-06 20:00:34.3440,00:18,60,0,2022-09-06 20:00:34.6610,1662465634.660814,0.001580053474744012,-0.009162339414308612,-0.004862399518266673,-0.00421142578125,-0.0102691650390625,-1.00531005859375,99.340087890625,-61.19911193847656,-69.64610290527344,2022-09-06 20:00:35.1200,1662465635.119838,0.2076835185289383,0.1701451539993286,-0.5987536907196045,-0.32946817576885223,-0.16462764143943787,-1.034133791923523,
0,2022-09-06 20:00:34.3440,00:18,60,0,2022-09-06 20:00:34.6780,1662465634.6777759,-0.0032708944508353203,-0.009471798732975819,-0.004625644497358629,-0.0031890869140625,-0.009246826171875,-1.007843017578125,99.39846801757812,-61.195068359375,-69.34945678710938,2022-09-06 20:00:35.1510,1662465635.150782,-0.21951228380203247,0.14860817790031433,-0.6457065343856812,-0.314972385764122,-0.21752995252609253,-1.0291135907173157,
0,2022-09-06 20:00:34.3440,00:18,60,0,2022-09-06 20:00:34.6780,1662465634.6777759,-0.0032708944508353203,-0.009471798732975819,-0.004625644497358629,-0.0031890869140625,-0.009246826171875,-1.007843017578125,99.39846801757812,-61.195068359375,-69.34945678710938,2022-09-06 20:00:35.1800,1662465635.179924,-0.17251096665859222,0.08529683947563171,-0.7904039025306702,-0.24856609106063843,-0.10012882947921753,-1.052993655204773,
0,2022-09-06 20:00:34.3440,00:18,60,0,2022-09-06 20:00:34.6960,1662465634.696147,-0.0018152105989980088,-0.01057461374037763,-0.007358314091888935,-0.003326416015625,-0.0112457275390625,-1.0089111328125,99.34812927246094,-60.96891784667969,-69.26632690429688,2022-09-06 20:00:35.2100,1662465635.2097468,-0.32247063517570496,0.005779378581792116,-1.0732277631759644,-0.17836037278175354,-0.20834410190582275,-0.9879149198532104,
0,2022-09-06 20:00:34.3440,00:18,60,0,2022-09-06 20:00:34.6960,1662465634.696147,-0.0018152105989980088,-0.01057461374037763,-0.007358314091888935,-0.003326416015625,-0.0112457275390625,-1.0089111328125,99.34812927246094,-60.96891784667969,-69.26632690429688,2022-09-06 20:00:35.2390,1662465635.2393088,-0.026408612728118896,0.05357673019170761,-1.43937349319458,-0.15565524995326996,-0.043274492025375366,-0.9342650175094604,
0,2022-09-06 20:00:34.3440,00:18,60,0,2022-09-06 20:00:34.7120,1662465634.7119122,-0.006668022737340396,-0.016101205634510066,-0.007897071580411965,-0.003936767578125,-0.01043701171875,-1.0054473876953125,99.34812927246094,-60.96891784667969,-69.26632690429688,2022-09-06 20:00:35.2690,1662465635.269068,-0.22551852464675903,0.09135978668928146,-1.6513314247131348,-0.12059052288532257,-0.16995298862457275,-0.9714354276657104,
0,2022-09-06 20:00:34.3440,00:18,60,0,2022-09-06 20:00:34.7120,1662465634.7119122,-0.006668022737340396,-0.016101205634510066,-0.007897071580411965,-0.003936767578125,-0.01043701171875,-1.0054473876953125,99.34812927246094,-60.96891784667969,-69.26632690429688,2022-09-06 20:00:35.3000,1662465635.2998672,-0.35742995142936707,0.014989388175308704,-1.6927804946899414,-0.0621492862701416,-0.1338963806629181,-0.9975890517234802,
0,2022-09-06 20:00:34.3440,00:18,60,0,2022-09-06 20:00:34.7290,1662465634.729083,-0.013731791212666569,-0.020378774977395337,-0.017757958148648362,-0.00213623046875,-0.0098724365234375,-1.0087127685546875,99.53141784667969,-60.97784423828125,-69.61479187011719,2022-09-06 20:00:35.3290,1662465635.329094,-0.032461442053318024,0.04821072518825531,-1.7496336698532104,-0.026855692267417908,-0.1481175720691681,-0.9077147841453552,
0,2022-09-06 20:00:34.3440,00:18,60,0,2022-09-06 20:00:34.7290,1662465634.729083,-0.013731791212666569,-0.020378774977395337,-0.017757958148648362,-0.00213623046875,-0.0098724365234375,-1.0087127685546875,99.53141784667969,-60.97784423828125,-69.61479187011719,2022-09-06 20:00:35.3590,1662465635.358952,-0.04422383010387421,0.2648458182811737,-1.9103800058364868,0.00305156409740448,-0.2058263123035431,-0.762039065361023,
0,2022-09-06 20:00:34.3440,00:18,60,0,2022-09-06 20:00:34.7450,1662465634.7445412,0.002106560422252677,-0.022941801210487597,-0.08879218758822287,0.00408935546875,-0.0052490234375,-1.0072784423828125,99.51649475097656,-61.00355529785156,-69.75604248046875,2022-09-06 20:00:35.3890,1662465635.388935,-0.04321768507361412,0.4441966712474823,-1.8561090230941772,0.024963222444057465,-0.18235838413238525,-0.826766848564148,
0,2022-09-06 20:00:34.3440,00:18,60,0,2022-09-06 20:00:34.7450,1662465634.7445412,0.002106560422252677,-0.022941801210487597,-0.08879218758822287,0.00408935546875,-0.0052490234375,-1.0072784423828125,99.51649475097656,-61.00355529785156,-69.75604248046875,2022-09-06 20:00:35.4190,1662465635.418726,-0.7097824215888977,0.5039984583854675,-1.8304400444030762,0.05921927094459534,-0.28752192854881287,-0.9447326064109802,
0,2022-09-06 20:00:34.3440,00:18,60,0,2022-09-06 20:00:34.7610,1662465634.7611198,0.002638926324159517,-0.0018221348178322147,-0.28463546151436087,0.0325164794921875,0.019927978515625,-0.997528076171875,99.6116943359375,-61.114227294921875,-69.9210205078125,2022-09-06 20:00:35.4480,1662465635.448481,-1.049579381942749,0.5086272954940796,-1.7546058893203735,0.05485531408339739,-0.2786412686109543,-0.9964446425437927,
0,2022-09-06 20:00:34.3440,00:18,60,0,2022-09-06 20:00:34.7610,1662465634.7611198,0.002638926324159517,-0.0018221348178322147,-0.28463546151436087,0.0325164794921875,0.019927978515625,-0.997528076171875,99.6116943359375,-61.114227294921875,-69.9210205078125,2022-09-06 20:00:35.4780,1662465635.478218,-0.37292954325675964,0.5441256761550903,-1.6300703287124634,0.05827333778142929,-0.055420324206352234,-0.9189605712890625,
0,2022-09-06 20:00:34.3440,00:18,60,0,2022-09-06 20:00:34.7810,1662465634.780545,0.009027317147041594,0.0041886197624766254,-0.2670151887940696,0.0833282470703125,0.0535430908203125,-1.014129638671875,99.509033203125,-60.60346984863281,-70.0443115234375,2022-09-06 20:00:35.5090,1662465635.508692,-0.622418999671936,0.5379143953323364,-1.6261976957321167,0.07949835807085037,-0.27955664694309235,-0.97259521484375,
0,2022-09-06 20:00:34.3440,00:18,60,0,2022-09-06 20:00:34.7810,1662465634.780545,0.009027317147041594,0.0041886197624766254,-0.2670151887940696,0.0833282470703125,0.0535430908203125,-1.014129638671875,99.509033203125,-60.60346984863281,-70.0443115234375,2022-09-06 20:00:35.5380,1662465635.538049,-1.3709747791290283,0.570833146572113,-1.7105590105056763,0.08946239203214645,-0.23248322308063507,-0.9854736328125,
0,2022-09-06 20:00:34.3440,00:18,60,0,2022-09-06 20:00:34.7940,1662465634.794256,0.005666674167470603,-0.006293315971966248,-0.04441859750532261,-0.04931640625,-0.05853271484375,-1.0012664794921875,99.509033203125,-60.60346984863281,-70.0443115234375,2022-09-06 20:00:35.5680,1662465635.567831,-0.43076223134994507,0.5568457245826721,-1.6859005689620972,0.13941971957683563,0.0898740291595459,-0.9735869765281677,
0,2022-09-06 20:00:34.3440,00:18,60,0,2022-09-06 20:00:34.7940,1662465634.794256,0.005666674167470603,-0.006293315971966248,-0.04441859750532261,-0.04931640625,-0.05853271484375,-1.0012664794921875,99.509033203125,-60.60346984863281,-70.0443115234375,2022-09-06 20:00:35.5980,1662465635.597863,0.021128812804818153,0.5333513021469116,-1.7338141202926636,0.12771626561880112,-0.1452638953924179,-0.98992919921875,
0,2022-09-06 20:00:34.3440,00:18,60,0,2022-09-06 20:00:34.8130,1662465634.8133879,-0.002255431127188107,-0.012370383263418062,-0.008207329847406197,-0.0899810791015625,-0.0708770751953125,-1.0066070556640625,99.64512634277344,-60.64173889160156,-69.88998413085938,2022-09-06 20:00:35.6280,1662465635.627851,-0.623996913433075,0.5028839707374573,-1.7248517274856567,0.1507265418767929,-0.17126482725143433,-0.9595184326171875,
0,2022-09-06 20:00:34.3440,00:18,60,0,2022-09-06 20:00:34.8130,1662465634.8133879,-0.002255431127188107,-0.012370383263418062,-0.008207329847406197,-0.0899810791015625,-0.0708770751953125,-1.0066070556640625,99.64512634277344,-60.64173889160156,-69.88998413085938,2022-09-06 20:00:35.6580,1662465635.6577969,-1.1928040981292725,0.5516821146011353,-1.8339883089065552,0.1696322113275528,-0.11703503131866455,-0.9738311171531677,
0,2022-09-06 20:00:34.3440,00:18,60,0,2022-09-06 20:00:34.8300,1662465634.830466,-0.021671739686628808,-0.0435647880598432,-0.007429953125212067,0.0027923583984375,-0.00732421875,-1.0146484375,99.64971923828125,-60.74256896972656,-69.79704284667969,2022-09-06 20:00:35.6880,1662465635.687594,0.10496938973665237,0.5402134656906128,-1.8246256113052368,0.1701968014240265,0.16778556630015373,-0.963836669921875,
0,2022-09-06 20:00:34.3440,00:18,60,0,2022-09-06 20:00:34.8300,1662465634.830466,-0.021671739686628808,-0.0435647880598432,-0.007429953125212067,0.0027923583984375,-0.00732421875,-1.0146484375,99.64971923828125,-60.74256896972656,-69.79704284667969,2022-09-06 20:00:35.7180,1662465635.717537,-0.08950236439704895,0.4299048185348511,-1.9787275791168213,0.18292269110679626,-0.04116829112172127,-0.9796141982078552,
0,2022-09-06 20:00:34.3440,00:18,60,0,2022-09-06 20:00:34.8460,1662465634.8456202,-0.03070438315585056,-0.4395355631577297,-0.03562483958588096,-0.0013275146484375,-0.00762939453125,-1.0269012451171875,99.69528198242188,-60.811065673828125,-70.2431640625,2022-09-06 20:00:35.7470,1662465635.747426,-0.6658631563186646,0.3905653953552246,-1.9991220235824585,0.19055213034152985,-0.09147648699581623,-0.9942321181297302,
0,2022-09-06 20:00:34.3440,00:18,60,0,2022-09-06 20:00:34.8460,1662465634.8456202,-0.03070438315585056,-0.4395355631577297,-0.03562483958588096,-0.0013275146484375,-0.00762939453125,-1.0269012451171875,99.69528198242188,-60.811065673828125,-70.2431640625,2022-09-06 20:00:35.7770,1662465635.7773561,-0.016584742814302444,0.24376878142356873,-1.9816555976867676,0.24801675975322723,0.238037109375,-1.0447539687156677,
0,2022-09-06 20:00:34.3440,00:18,60,0,2022-09-06 20:00:34.8610,1662465634.861195,-0.012966398715377796,-1.0970322194108144,-0.024200144825550038,0.028411865234375,-0.00323486328125,-1.2439727783203125,99.10049438476562,-60.721160888671875,-70.69758605957031,2022-09-06 20:00:35.8070,1662465635.807219,0.4208511710166931,-0.004337970167398453,-1.899857521057129,0.27064554393291473,0.011108413338661194,-1.0542907118797302,
0,2022-09-06 20:00:34.3440,00:18,60,0,2022-09-06 20:00:34.8610,1662465634.861195,-0.012966398715377796,-1.0970322194108144,-0.024200144825550038,0.028411865234375,-0.00323486328125,-1.2439727783203125,99.10049438476562,-60.721160888671875,-70.69758605957031,2022-09-06 20:00:35.8370,1662465635.837086,-0.3266616463661194,-0.12175807356834412,-1.8964744806289673,0.24549907445907593,0.005188021808862686,-0.9365538954734802,
0,2022-09-06 20:00:34.3440,00:18,60,0,2022-09-06 20:00:34.8780,1662465634.877689,0.020152139968629596,-0.9716769605846758,-0.1128208248395718,-0.0128021240234375,0.018341064453125,-1.2112579345703125,99.02967834472656,-60.67692565917969,-71.4625244140625,2022-09-06 20:00:35.8670,1662465635.8669019,-0.519597053527832,-0.051411472260951996,-1.7725833654403687,0.26676978170871735,0.03616340085864067,-0.9046630263328552,
0,2022-09-06 20:00:34.3440,00:18,60,0,2022-09-06 20:00:34.8780,1662465634.877689,0.020152139968629596,-0.9716769605846758,-0.1128208248395718,-0.0128021240234375,0.018341064453125,-1.2112579345703125,99.02967834472656,-60.67692565917969,-71.4625244140625,2022-09-06 20:00:35.8970,1662465635.897249,-0.1966429203748703,-0.010564707219600677,-1.7583473920822144,0.29678378999233246,0.17736826837062836,-0.8471527099609375,
0,2022-09-06 20:00:34.3440,00:18,60,0,2022-09-06 20:00:34.8970,1662465634.8972368,-0.033612288750108084,-0.7404093831027397,-0.048115331414461594,-0.1239166259765625,0.06365966796875,-0.8757781982421875,98.75601196289062,-60.60722351074219,-71.56855773925781,2022-09-06 20:00:35.9270,1662465635.926727,0.21726210415363312,0.037715476006269455,-1.7769579887390137,0.28907813131809235,0.19494643062353134,-0.8214873671531677,
0,2022-09-06 20:00:34.3440,00:18,60,0,2022-09-06 20:00:34.8970,1662465634.8972368,-0.033612288750108084,-0.7404093831027397,-0.048115331414461594,-0.1239166259765625,0.06365966796875,-0.8757781982421875,98.75601196289062,-60.60722351074219,-71.56855773925781,2022-09-06 20:00:35.9570,1662465635.9567308,0.08933263272047043,0.12657371163368225,-1.7338817119598389,0.26355014741420746,0.11920180171728134,-0.8165435791015625,
0,2022-09-06 20:00:34.3440,00:18,60,0,2022-09-06 20:00:34.9110,1662465634.9111161,-0.0029989857035382303,-0.9800906854165631,-0.06153286961849881,-0.187744140625,0.019989013671875,-0.9536285400390625,98.75601196289062,-60.60722351074219,-71.56855773925781,2022-09-06 20:00:35.9870,1662465635.986664,0.5181838870048523,0.24127152562141418,-1.553950309753418,0.28909336030483246,0.06925977766513824,-0.8710173964500427,
0,2022-09-06 20:00:34.3440,00:18,60,0,2022-09-06 20:00:34.9110,1662465634.9111161,-0.0029989857035382303,-0.9800906854165631,-0.06153286961849881,-0.187744140625,0.019989013671875,-0.9536285400390625,98.75601196289062,-60.60722351074219,-71.56855773925781,2022-09-06 20:00:36.0170,1662465636.0165029,0.06416097283363342,0.2497616857290268,-1.5413928031921387,0.30903656780719757,-0.048202380537986755,-0.8888244032859802,
0,2022-09-06 20:00:34.3440,00:18,60,0,2022-09-06 20:00:34.9280,1662465634.927602,0.11678920117989888,-1.2920110312471127,-0.24773763092742204,-0.1682891845703125,0.0369720458984375,-1.1504364013671875,98.22097778320312,-60.722198486328125,-72.1993408203125,2022-09-06 20:00:36.0460,1662465636.046403,0.19883514940738678,0.19977308809757233,-1.3807814121246338,0.32359348237514496,0.17541518062353134,-0.9707793593406677,
0,2022-09-06 20:00:34.3440,00:18,60,0,2022-09-06 20:00:34.9280,1662465634.927602,0.11678920117989888,-1.2920110312471127,-0.24773763092742204,-0.1682891845703125,0.0369720458984375,-1.1504364013671875,98.22097778320312,-60.722198486328125,-72.1993408203125,2022-09-06 20:00:36.0760,1662465636.076354,0.2728803753852844,0.17344428598880768,-1.3009721040725708,0.32043492794036865,0.14596573263406754,-0.9845122694969177,
0,2022-09-06 20:00:34.3440,00:18,60,0,2022-09-06 20:00:34.9440,1662465634.9441519,0.3424707982753937,-1.3098459547512644,-0.49826678730946516,-0.1915283203125,0.0576629638671875,-1.1161041259765625,97.46176147460938,-60.09539794921875,-72.86752319335938,2022-09-06 20:00:36.1060,1662465636.1060371,0.06817914545536041,0.17580969631671906,-1.2800509929656982,0.28981055319309235,0.10939042270183563,-0.9340362548828125,
0,2022-09-06 20:00:34.3440,00:18,60,0,2022-09-06 20:00:34.9440,1662465634.9441519,0.3424707982753937,-1.3098459547512644,-0.49826678730946516,-0.1915283203125,0.0576629638671875,-1.1161041259765625,97.46176147460938,-60.09539794921875,-72.86752319335938,2022-09-06 20:00:36.1360,1662465636.13592,0.28671202063560486,0.15129131078720093,-1.160844326019287,0.28495825827121735,0.16969317942857742,-0.9629668593406677,
0,2022-09-06 20:00:34.3440,00:18,60,0,2022-09-06 20:00:34.9610,1662465634.960991,0.7021967498856287,-1.271343036975335,-0.6213261349598466,-0.26043701171875,0.072509765625,-1.093963623046875,96.96699523925781,-60.193634033203125,-73.55043029785156,2022-09-06 20:00:36.1660,1662465636.16573,1.0583903789520264,0.04924776032567024,-0.9386008977890015,0.28346286714076996,0.06642165035009384,-1.0093078017234802,
0,2022-09-06 20:00:34.3440,00:18,60,0,2022-09-06 20:00:34.9610,1662465634.960991,0.7021967498856287,-1.271343036975335,-0.6213261349598466,-0.26043701171875,0.072509765625,-1.093963623046875,96.96699523925781,-60.193634033203125,-73.55043029785156,2022-09-06 20:00:36.1960,1662465636.196033,0.4200010895729065,0.014826669357717037,-0.843257486820221,0.28418003022670746,-0.11274709552526474,-0.9930724501609802,
0,2022-09-06 20:00:34.3440,00:18,60,0,2022-09-06 20:00:34.9770,1662465634.977431,0.9226351154269755,-0.8951536898223389,-0.6906833718609982,-0.304443359375,0.03485107421875,-1.104095458984375,96.76022338867188,-60.28562927246094,-74.1368408203125,2022-09-06 20:00:36.2260,1662465636.225861,0.06129381060600281,0.11667606234550476,-0.779540479183197,0.25918613374233246,-0.01683032512664795,-0.9175109267234802,
0,2022-09-06 20:00:34.3440,00:18,60,0,2022-09-06 20:00:34.9770,1662465634.977431,0.9226351154269755,-0.8951536898223389,-0.6906833718609982,-0.304443359375,0.03485107421875,-1.104095458984375,96.76022338867188,-60.28562927246094,-74.1368408203125,2022-09-06 20:00:36.2550,1662465636.2554932,1.1388980150222778,0.0972009003162384,-0.6186910271644592,0.26915015280246735,0.19548044726252556,-0.8696441054344177,
0,2022-09-06 20:00:34.3440,00:18,60,0,2022-09-06 20:00:34.9950,1662465634.994639,1.072949786305446,-0.37000868289514005,-0.7451982793749202,-0.32470703125,0.0032958984375,-1.0567626953125,96.85064697265625,-60.5499267578125,-73.4417724609375,2022-09-06 20:00:36.2860,1662465636.286285,1.2829874753952026,0.08418603241443634,-0.579618513584137,0.2734377980232239,-0.014083843678236008,-0.9512633681297302,
0,2022-09-06 20:00:34.3440,00:18,60,0,2022-09-06 20:00:34.9950,1662465634.994639,1.072949786305446,-0.37000868289514005,-0.7451982793749202,-0.32470703125,0.0032958984375,-1.0567626953125,96.85064697265625,-60.5499267578125,-73.4417724609375,2022-09-06 20:00:36.3150,1662465636.315248,0.5285576581954956,0.10689480602741241,-0.5518250465393066,0.23663368821144104,-0.16198732098564506,-0.93170166015625,
0,2022-09-06 20:00:34.3440,00:18,60,0,2022-09-06 20:00:35.0110,1662465635.0109758,1.2530774803229174,-0.14791303220743693,-0.683146625976074,-0.330230712890625,0.0003509521484375,-1.046051025390625,96.85064697265625,-60.5499267578125,-73.4417724609375,2022-09-06 20:00:36.3460,1662465636.345787,0.48941370844841003,0.12698329985141754,-0.46374621987342834,0.2479558140039444,0.013259876519441605,-0.9775848388671875,
0,2022-09-06 20:00:34.3440,00:18,60,0,2022-09-06 20:00:35.0110,1662465635.0109758,1.2530774803229174,-0.14791303220743693,-0.683146625976074,-0.330230712890625,0.0003509521484375,-1.046051025390625,96.85064697265625,-60.5499267578125,-73.4417724609375,2022-09-06 20:00:36.3750,1662465636.375152,1.0522594451904297,-0.04495090991258621,-0.3033510446548462,0.2920537739992142,0.015579130500555038,-1.0142058730125427,
0,2022-09-06 20:00:34.3440,00:18,60,0,2022-09-06 20:00:35.0280,1662465635.027633,1.3350794060797653,0.008385229008223489,-0.5504146772465247,-0.331787109375,-0.0353240966796875,-1.0865631103515625,96.58967590332031,-60.76861572265625,-73.45101928710938,2022-09-06 20:00:36.4060,1662465636.405513,0.6310491561889648,-0.07171221822500229,-0.30697253346443176,0.2312779724597931,-0.15737928077578545,-0.9743804335594177,
0,2022-09-06 20:00:34.3440,00:18,60,0,2022-09-06 20:00:35.0280,1662465635.027633,1.3350794060797653,0.008385229008223489,-0.5504146772465247,-0.331787109375,-0.0353240966796875,-1.0865631103515625,96.58967590332031,-60.76861572265625,-73.45101928710938,2022-09-06 20:00:36.4350,1662465636.435107,0.005396189168095589,-0.06623516231775284,-0.29825109243392944,0.2038731575012207,-0.07334912568330765,-0.9193267226219177,
0,2022-09-06 20:00:34.3440,00:18,60,0,2022-09-06 20:00:35.0470,1662465635.047274,1.381385652165736,-0.11963745196573862,-0.5463395081464855,-0.2938995361328125,-0.040283203125,-1.075164794921875,96.61297607421875,-61.04853820800781,-73.74685668945312,2022-09-06 20:00:36.4650,1662465636.464699,0.365945041179657,-0.05786404386162758,-0.21566274762153625,0.1789250671863556,-0.05757156014442444,-0.9625396132469177,
0,2022-09-06 20:00:34.3440,00:18,60,0,2022-09-06 20:00:35.0470,1662465635.047274,1.381385652165736,-0.11963745196573862,-0.5463395081464855,-0.2938995361328125,-0.040283203125,-1.075164794921875,96.61297607421875,-61.04853820800781,-73.74685668945312,2022-09-06 20:00:36.4950,1662465636.4950662,0.3605140745639801,-0.1176203265786171,-0.20078782737255096,0.17477458715438843,-0.11257951706647873,-0.9674529433250427,
0,2022-09-06 20:00:34.3440,00:18,60,0,2022-09-06 20:00:35.0630,1662465635.063169,1.4082723938989579,-0.5247282222166014,-0.6233653174065202,-0.2370147705078125,-0.03887939453125,-1.0937957763671875,96.55252075195312,-61.70033264160156,-73.64706420898438,2022-09-06 20:00:36.5250,1662465636.524775,0.1377374529838562,-0.12395838648080826,-0.16429276764392853,0.1353611797094345,-0.12176531553268433,-0.9136046767234802,
0,2022-09-06 20:00:34.3440,00:18,60,0,2022-09-06 20:00:35.0630,1662465635.063169,1.4082723938989579,-0.5247282222166014,-0.6233653174065202,-0.2370147705078125,-0.03887939453125,-1.0937957763671875,96.55252075195312,-61.70033264160156,-73.64706420898438,2022-09-06 20:00:36.5540,1662465636.554394,-0.015631331130862236,-0.04191650450229645,-0.13126765191555023,0.09825180470943451,-0.06488055735826492,-0.9042968153953552,
0,2022-09-06 20:00:34.3440,00:18,60,0,2022-09-06 20:00:35.0780,1662465635.077701,1.3522626540651745,-0.5137669174859444,-0.5984016442964445,-0.222503662109375,-0.0802459716796875,-1.127532958984375,96.11268615722656,-61.81361389160156,-74.06474304199219,2022-09-06 20:00:36.5860,1662465636.5864758,0.09062719345092773,-0.010779624804854393,-0.09532728046178818,0.08958491683006287,-0.0764620304107666,-0.910018801689148,
0,2022-09-06 20:00:34.3440,00:18,60,0,2022-09-06 20:00:35.0780,1662465635.077701,1.3522626540651745,-0.5137669174859444,-0.5984016442964445,-0.222503662109375,-0.0802459716796875,-1.127532958984375,96.11268615722656,-61.81361389160156,-74.06474304199219,2022-09-06 20:00:36.6140,1662465636.61405,0.020910432562232018,0.11239609867334366,-0.09717977792024612,0.04589909315109253,-0.11080958694219589,-0.8491362929344177,
0,2022-09-06 20:00:34.3440,00:18,60,0,2022-09-06 20:00:35.0940,1662465635.0942311,1.3275951244683155,-0.19021761243945462,-0.5190050890340212,-0.2532501220703125,-0.0744171142578125,-1.0133209228515625,96.17768859863281,-62.618927001953125,-73.57084655761719,2022-09-06 20:00:36.6440,1662465636.6440349,0.0425717867910862,0.29433366656303406,-0.06494812667369843,0.015473037958145142,-0.1128542572259903,-0.8610686659812927,
0,2022-09-06 20:00:34.3440,00:18,60,0,2022-09-06 20:00:35.0940,1662465635.0942311,1.3275951244683155,-0.19021761243945462,-0.5190050890340212,-0.2532501220703125,-0.0744171142578125,-1.0133209228515625,96.17768859863281,-62.618927001953125,-73.57084655761719,2022-09-06 20:00:36.6740,1662465636.673868,-0.05484717711806297,0.36141976714134216,-0.056307658553123474,0.08560240268707275,-0.1135256290435791,-0.8776854872703552,
0,2022-09-06 20:00:34.3440,00:18,60,0,2022-09-06 20:00:35.1140,1662465635.11398,1.196766536969846,-0.18136233549883216,-0.4568525018298609,-0.2622528076171875,-0.0859832763671875,-0.9718017578125,96.02946472167969,-62.98719787597656,-73.76840209960938,2022-09-06 20:00:36.7040,1662465636.7037601,-0.18799404799938202,0.48918357491493225,-0.03144683688879013,0.06680357456207275,-0.12298605591058731,-0.8495330214500427,
0,2022-09-06 20:00:34.3440,00:18,60,0,2022-09-06 20:00:35.1140,1662465635.11398,1.196766536969846,-0.18136233549883216,-0.4568525018298609,-0.2622528076171875,-0.0859832763671875,-0.9718017578125,96.02946472167969,-62.98719787597656,-73.76840209960938,2022-09-06 20:00:36.7340,1662465636.733926,0.008916888386011124,0.6550537943840027,0.03365600109100342,0.07679814100265503,-0.08354208618402481,-0.830215334892273,
0,2022-09-06 20:00:34.3440,00:18,60,0,2022-09-06 20:00:35.1280,1662465635.127578,1.044551168021386,-0.24494370862781992,-0.46388457868821514,-0.2275848388671875,-0.1283111572265625,-1.029541015625,96.02946472167969,-62.98719787597656,-73.76840209960938,2022-09-06 20:00:36.7640,1662465636.76354,0.08893635123968124,0.8191084861755371,0.15346549451351166,0.1437232494354248,-0.0729372426867485,-0.833999514579773,
0,2022-09-06 20:00:34.3440,00:18,60,0,2022-09-06 20:00:35.1280,1662465635.127578,1.044551168021386,-0.24494370862781992,-0.46388457868821514,-0.2275848388671875,-0.1283111572265625,-1.029541015625,96.02946472167969,-62.98719787597656,-73.76840209960938,2022-09-06 20:00:36.7940,1662465636.793634,-0.36958086490631104,1.0464963912963867,0.29547861218452454,0.16757285594940186,-0.1690218225121498,-0.8071439862251282,
0,2022-09-06 20:00:34.3440,00:18,60,0,2022-09-06 20:00:35.1440,1662465635.144137,0.9816792610067954,-0.2912486231332456,-0.4908541447313386,-0.21197509765625,-0.11474609375,-0.994659423828125,95.94572448730469,-62.98130798339844,-73.6307373046875,2022-09-06 20:00:36.8230,1662465636.823497,-0.7623143196105957,1.3353028297424316,0.4391128420829773,0.2274789810180664,-0.15855427831411362,-0.7897337079048157,
0,2022-09-06 20:00:34.3440,00:18,60,0,2022-09-06 20:00:35.1440,1662465635.144137,0.9816792610067954,-0.2912486231332456,-0.4908541447313386,-0.21197509765625,-0.11474609375,-0.994659423828125,95.94572448730469,-62.98130798339844,-73.6307373046875,2022-09-06 20:00:36.8540,1662465636.853653,-0.8857494592666626,1.6175588369369507,0.6394707560539246,0.3645487427711487,-0.10069289430975914,-0.7350003719329834,
0,2022-09-06 20:00:34.3440,00:18,60,0,2022-09-06 20:00:35.1640,1662465635.1640291,0.9710236871692793,-0.34578723278086937,-0.43459593196785073,-0.1862335205078125,-0.151763916015625,-0.9917144775390625,95.93568420410156,-63.57759094238281,-74.67271423339844,2022-09-06 20:00:36.8830,1662465636.883099,-0.9684887528419495,1.9027676582336426,0.9348981380462646,0.551224946975708,-0.02534494176506996,-0.6185605525970459,
0,2022-09-06 20:00:34.3440,00:18,60,0,2022-09-06 20:00:35.1640,1662465635.1640291,0.9710236871692793,-0.34578723278086937,-0.43459593196785073,-0.1862335205078125,-0.151763916015625,-0.9917144775390625,95.93568420410156,-63.57759094238281,-74.67271423339844,2022-09-06 20:00:36.9130,1662465636.913049,-1.7469550371170044,2.223278045654297,1.149308443069458,0.7390760183334351,-0.06282046250998974,-0.5156093835830688,
0,2022-09-06 20:00:34.3440,00:18,60,0,2022-09-06 20:00:35.1780,1662465635.178108,0.902852089585431,-0.34531904906123345,-0.3090321476283588,-0.1777191162109375,-0.1575469970703125,-0.9750518798828125,95.82298278808594,-63.79638671875,-74.6104736328125,2022-09-06 20:00:36.9430,1662465636.9428039,-2.5934746265411377,2.3862924575805664,1.3016464710235596,0.8757948279380798,-0.03218072094023228,-0.4303279519081116,
0,2022-09-06 20:00:34.3440,00:18,60,0,2022-09-06 20:00:35.1780,1662465635.178108,0.902852089585431,-0.34531904906123345,-0.3090321476283588,-0.1777191162109375,-0.1575469970703125,-0.9750518798828125,95.82298278808594,-63.79638671875,-74.6104736328125,2022-09-06 20:00:36.9730,1662465636.9729052,-3.2177891731262207,2.3210418224334717,1.513288140296936,0.9459700584411621,-0.07647687196731567,-0.4087061882019043,
0,2022-09-06 20:00:34.3440,00:18,60,0,2022-09-06 20:00:35.1970,1662465635.197061,0.864101764144233,-0.09659791274324513,-0.2119482079861742,-0.1576385498046875,-0.1842041015625,-0.9686737060546875,96.13314819335938,-64.57676696777344,-74.61538696289062,2022-09-06 20:00:37.0030,1662465637.0026588,-3.1098861694335938,2.0564894676208496,1.7671008110046387,0.9905411005020142,-0.04454014450311661,-0.434020459651947,
0,2022-09-06 20:00:34.3440,00:18,60,0,2022-09-06 20:00:35.1970,1662465635.197061,0.864101764144233,-0.09659791274324513,-0.2119482079861742,-0.1576385498046875,-0.1842041015625,-0.9686737060546875,96.13314819335938,-64.57676696777344,-74.61538696289062,2022-09-06 20:00:37.0360,1662465637.036284,-2.347432851791382,1.7441623210906982,2.164619207382202,1.0873123407363892,0.057464852929115295,-0.43379145860671997,
0,2022-09-06 20:00:34.3440,00:18,60,0,2022-09-06 20:00:35.2140,1662465635.21366,0.8601158109407114,0.1836350771731058,-0.1291776939387295,-0.147125244140625,-0.1658782958984375,-0.8925018310546875,96.6607666015625,-65.31181335449219,-74.00897216796875,2022-09-06 20:00:37.0630,1662465637.062504,-1.7099796533584595,1.4641897678375244,2.45461106300354,1.2492997646331787,0.1827700436115265,-0.5081779956817627,
0,2022-09-06 20:00:34.3440,00:18,60,0,2022-09-06 20:00:35.2140,1662465635.21366,0.8601158109407114,0.1836350771731058,-0.1291776939387295,-0.147125244140625,-0.1658782958984375,-0.8925018310546875,96.6607666015625,-65.31181335449219,-74.00897216796875,2022-09-06 20:00:37.0930,1662465637.0925589,-1.9024168252944946,1.3549724817276,2.599520206451416,1.252153217792511,0.08831807971000671,-0.46252357959747314,
0,2022-09-06 20:00:34.3440,00:18,60,0,2022-09-06 20:00:35.2290,1662465635.229136,0.6722766676708065,0.41892589211382447,-0.06221756833475819,-0.1523590087890625,-0.163330078125,-0.895843505859375,96.6607666015625,-65.31181335449219,-74.00897216796875,2022-09-06 20:00:37.1220,1662465637.122011,-3.0736804008483887,1.4383366107940674,2.5162503719329834,1.2187671065330505,0.03950519859790802,-0.36703401803970337,
0,2022-09-06 20:00:34.3440,00:18,60,0,2022-09-06 20:00:35.2290,1662465635.229136,0.6722766676708065,0.41892589211382447,-0.06221756833475819,-0.1523590087890625,-0.163330078125,-0.895843505859375,96.6607666015625,-65.31181335449219,-74.00897216796875,2022-09-06 20:00:37.1520,1662465637.152101,-4.250357151031494,1.6151331663131714,2.365664005279541,1.1702136993408203,0.09210225194692612,-0.3098134398460388,
0,2022-09-06 20:00:34.3440,00:18,60,0,2022-09-06 20:00:35.2470,1662465635.2471042,0.5049361416273506,0.6000815663120664,-0.05944708185274875,-0.13861083984375,-0.1879730224609375,-0.8803558349609375,97.3729248046875,-66.10162353515625,-74.18182373046875,2022-09-06 20:00:37.1820,1662465637.181941,-4.154276371002197,1.5369137525558472,2.281688690185547,1.1874866485595703,0.26580827683210373,-0.33460885286331177,
0,2022-09-06 20:00:34.3440,00:18,60,0,2022-09-06 20:00:35.2470,1662465635.2471042,0.5049361416273506,0.6000815663120664,-0.05944708185274875,-0.13861083984375,-0.1879730224609375,-0.8803558349609375,97.3729248046875,-66.10162353515625,-74.18182373046875,2022-09-06 20:00:37.2120,1662465637.211802,-2.607903480529785,1.5462311506271362,2.379444122314453,1.1028767824172974,0.4377138093113899,-0.37368640303611755,
0,2022-09-06 20:00:34.3440,00:18,60,0,2022-09-06 20:00:35.2620,1662465635.26188,0.4706306320454949,0.6617981940457808,-0.10463799607419434,-0.11444091796875,-0.203887939453125,-0.888946533203125,98.19422912597656,-66.66163635253906,-73.43145751953125,2022-09-06 20:00:37.2420,1662465637.241798,-1.616217851638794,1.6987314224243164,2.2833595275878906,1.0570546388626099,0.30711371824145317,-0.3428025543689728,
0,2022-09-06 20:00:34.3440,00:18,60,0,2022-09-06 20:00:35.2620,1662465635.26188,0.4706306320454949,0.6617981940457808,-0.10463799607419434,-0.11444091796875,-0.203887939453125,-0.888946533203125,98.19422912597656,-66.66163635253906,-73.43145751953125,2022-09-06 20:00:37.2720,1662465637.271507,-1.3631048202514648,1.907012701034546,2.094343423843384,1.0165120959281921,0.2527008205652237,-0.3219589293003082,
0,2022-09-06 20:00:34.3440,00:18,60,0,2022-09-06 20:00:35.2790,1662465635.2790918,0.38716716348241154,0.6453691532810819,-0.15929405112589054,-0.1055450439453125,-0.2104339599609375,-0.8698883056640625,99.094482421875,-67.82412719726562,-72.6759033203125,2022-09-06 20:00:37.3020,1662465637.301657,-1.3784422874450684,2.144002676010132,1.9510602951049805,1.0116142630577087,0.20832813903689384,-0.2976972460746765,
0,2022-09-06 20:00:34.3440,00:18,60,0,2022-09-06 20:00:35.2790,1662465635.2790918,0.38716716348241154,0.6453691532810819,-0.15929405112589054,-0.1055450439453125,-0.2104339599609375,-0.8698883056640625,99.094482421875,-67.82412719726562,-72.6759033203125,2022-09-06 20:00:37.3330,1662465637.3332272,-1.4229875802993774,2.2428104877471924,1.822038173675537,1.0998557806015015,0.1431882530450821,-0.24409303069114685,
0,2022-09-06 20:00:34.3440,00:18,60,0,2022-09-06 20:00:35.2970,1662465635.297247,0.20460720444137076,0.6314557344820719,-0.27787476077108575,-0.098724365234375,-0.2578125,-0.8911590576171875,99.82527160644531,-67.97305297851562,-73.58613586425781,2022-09-06 20:00:37.3620,1662465637.361631,-0.7978755235671997,2.1615450382232666,1.7323154211044312,1.089205026626587,0.16714446246623993,-0.2926311492919922,
0,2022-09-06 20:00:34.3440,00:18,60,0,2022-09-06 20:00:35.2970,1662465635.297247,0.20460720444137076,0.6314557344820719,-0.27787476077108575,-0.098724365234375,-0.2578125,-0.8911590576171875,99.82527160644531,-67.97305297851562,-73.58613586425781,2022-09-06 20:00:37.3910,1662465637.3913422,0.07767757773399353,2.085803747177124,1.681775689125061,1.0100578665733337,0.07730056345462799,-0.3038156256079674,
0,2022-09-06 20:00:34.3440,00:18,60,0,2022-09-06 20:00:35.3130,1662465635.3134952,0.044685179930439536,0.5367513292738731,-0.4518233884273553,-0.08941650390625,-0.2560272216796875,-0.8692474365234375,100.35624694824219,-68.09016418457031,-73.22744750976562,2022-09-06 20:00:37.4240,1662465637.424185,0.6002206802368164,1.8874558210372925,1.4822492599487305,1.0484946966171265,0.07893314957618713,-0.2922644726932049,
0,2022-09-06 20:00:34.3440,00:18,60,0,2022-09-06 20:00:35.3130,1662465635.3134952,0.044685179930439536,0.5367513292738731,-0.4518233884273553,-0.08941650390625,-0.2560272216796875,-0.8692474365234375,100.35624694824219,-68.09016418457031,-73.22744750976562,2022-09-06 20:00:37.4510,1662465637.451048,0.9984109401702881,1.7076023817062378,1.269343614578247,1.010103464126587,0.06219419836997986,-0.3069893140345812,
0,2022-09-06 20:00:34.3440,00:18,60,0,2022-09-06 20:00:35.3290,1662465635.329235,-0.0028961876854611715,0.26860482964873794,-0.5690224500990174,-0.0658111572265625,-0.2906036376953125,-0.9149322509765625,100.35624694824219,-68.09016418457031,-73.22744750976562,2022-09-06 20:00:37.4990,1662465637.498722,0.9431231617927551,1.4765833616256714,0.9232402443885803,1.003252387046814,-0.022186994552612305,-0.32230889797210693,
0,2022-09-06 20:00:34.3440,00:18,60,0,2022-09-06 20:00:35.3290,1662465635.329235,-0.0028961876854611715,0.26860482964873794,-0.5690224500990174,-0.0658111572265625,-0.2906036376953125,-0.9149322509765625,100.35624694824219,-68.09016418457031,-73.22744750976562,2022-09-06 20:00:37.5120,1662465637.512169,0.8683865666389465,1.1634118556976318,0.578288197517395,0.979371964931488,-0.02096623182296753,-0.3593117371201515,
0,2022-09-06 20:00:34.3440,00:18,60,0,2022-09-06 20:00:35.3440,1662465635.344363,0.031745945458180554,0.25439127259487604,-0.5757701013529511,-0.0702056884765625,-0.301910400390625,-0.93524169921875,101.11466979980469,-68.55769348144531,-73.44122314453125,2022-09-06 20:00:37.5410,1662465637.5406718,0.8344600796699524,0.8215969204902649,0.16633005440235138,0.881502091884613,-0.006928175687789917,-0.3406043201684952,
0,2022-09-06 20:00:34.3440,00:18,60,0,2022-09-06 20:00:35.3440,1662465635.344363,0.031745945458180554,0.25439127259487604,-0.5757701013529511,-0.0702056884765625,-0.301910400390625,-0.93524169921875,101.11466979980469,-68.55769348144531,-73.44122314453125,2022-09-06 20:00:37.5700,1662465637.570389,1.117219090461731,0.5558129549026489,-0.27249595522880554,0.7830978035926819,0.01924079656600952,-0.2991009056568146,
0,2022-09-06 20:00:34.3440,00:18,60,0,2022-09-06 20:00:35.3630,1662465635.36267,0.07314984460953346,0.40438343466533777,-0.587059507529906,-0.0900421142578125,-0.3440399169921875,-0.88311767578125,101.55555725097656,-68.54258728027344,-73.32240295410156,2022-09-06 20:00:37.6000,1662465637.6000528,1.2536810636520386,0.2076760232448578,-0.7115297317504883,0.7975937128067017,-0.002869158983230591,-0.28462032973766327,
0,2022-09-06 20:00:34.3440,00:18,60,0,2022-09-06 20:00:35.3630,1662465635.36267,0.07314984460953346,0.40438343466533777,-0.587059507529906,-0.0900421142578125,-0.3440399169921875,-0.88311767578125,101.55555725097656,-68.54258728027344,-73.32240295410156,2022-09-06 20:00:37.6300,1662465637.629983,1.1302003860473633,-0.17583301663398743,-1.0120131969451904,0.8179337382316589,0.01673838496208191,-0.25575046241283417,
0,2022-09-06 20:00:34.3440,00:18,60,0,2022-09-06 20:00:35.3780,1662465635.37778,0.12092855246220904,0.4298885284250267,-0.6948349736843227,-0.080291748046875,-0.3511505126953125,-0.8676605224609375,102.01034545898438,-68.7623291015625,-73.38856506347656,2022-09-06 20:00:37.6600,1662465637.6600652,0.8434130549430847,-0.6620674133300781,-1.1991592645645142,0.9349534511566162,0.06132465600967407,-0.22158591449260712,
0,2022-09-06 20:00:34.3440,00:18,60,0,2022-09-06 20:00:35.3780,1662465635.37778,0.12092855246220904,0.4298885284250267,-0.6948349736843227,-0.080291748046875,-0.3511505126953125,-0.8676605224609375,102.01034545898438,-68.7623291015625,-73.38856506347656,2022-09-06 20:00:37.6900,1662465637.689913,0.2127983719110489,-1.1161699295043945,-1.3601148128509521,0.9622666239738464,0.08796660602092743,-0.1416912078857422,
0,2022-09-06 20:00:34.3440,00:18,60,0,2022-09-06 20:00:35.3950,1662465635.394501,0.2524690029200568,0.07589849317060424,-0.8386390146458764,-0.0439605712890625,-0.352203369140625,-0.910797119140625,102.58935546875,-68.81936645507812,-73.31059265136719,2022-09-06 20:00:37.7200,1662465637.719778,0.05633340775966644,-1.3248817920684814,-1.408509373664856,0.9940199255943298,0.2151487022638321,-0.03816063702106476,
0,2022-09-06 20:00:34.3440,00:18,60,0,2022-09-06 20:00:35.3950,1662465635.394501,0.2524690029200568,0.07589849317060424,-0.8386390146458764,-0.0439605712890625,-0.352203369140625,-0.910797119140625,102.58935546875,-68.81936645507812,-73.31059265136719,2022-09-06 20:00:37.7500,1662465637.749635,0.5100415349006653,-1.3970673084259033,-1.3455675840377808,1.187287986278534,0.3800657317042351,-0.002912558615207672,
0,2022-09-06 20:00:34.3440,00:18,60,0,2022-09-06 20:00:35.4120,1662465635.411516,0.3806450819728075,-0.26562102396341314,-0.8733842121237042,-0.02386474609375,-0.3562164306640625,-0.99603271484375,102.58935546875,-68.81936645507812,-73.31059265136719,2022-09-06 20:00:37.7800,1662465637.779525,0.43327775597572327,-1.8223094940185547,-1.2593555450439453,1.439378261566162,0.37019337713718414,0.013978704810142517,
0,2022-09-06 20:00:34.3440,00:18,60,0,2022-09-06 20:00:35.4120,1662465635.411516,0.3806450819728075,-0.26562102396341314,-0.8733842121237042,-0.02386474609375,-0.3562164306640625,-0.99603271484375,102.58935546875,-68.81936645507812,-73.31059265136719,2022-09-06 20:00:37.8090,1662465637.8094258,0.036955710500478745,-2.053682327270508,-1.3643159866333008,1.3020033240318298,0.33172600343823433,0.006242234259843826,
0,2022-09-06 20:00:34.3440,00:18,60,0,2022-09-06 20:00:35.4280,1662465635.428493,0.377939043989178,-0.19690933731049673,-0.803302062773833,-0.0448150634765625,-0.3771514892578125,-0.952423095703125,102.8304443359375,-69.28416442871094,-73.12911987304688,2022-09-06 20:00:37.8390,1662465637.839342,-0.04723639786243439,-1.7749643325805664,-1.6688748598098755,1.3087171912193298,0.4557800693437457,0.08885329216718674,
0,2022-09-06 20:00:34.3440,00:18,60,0,2022-09-06 20:00:35.4280,1662465635.428493,0.377939043989178,-0.19690933731049673,-0.803302062773833,-0.0448150634765625,-0.3771514892578125,-0.952423095703125,102.8304443359375,-69.28416442871094,-73.12911987304688,2022-09-06 20:00:37.8690,1662465637.869174,0.07349028438329697,-1.6140310764312744,-2.0007104873657227,1.4055496454238892,0.39012158662080765,0.1377120241522789,
0,2022-09-06 20:00:34.3440,00:18,60,0,2022-09-06 20:00:35.4460,1662465635.446066,0.1639910683404633,0.1526345505040384,-0.7744746755542703,-0.077392578125,-0.39105224609375,-0.86859130859375,103.11091613769531,-69.20635986328125,-73.54273986816406,2022-09-06 20:00:37.8990,1662465637.899117,0.5799835920333862,-1.479567050933838,-2.3476264476776123,1.308640956878662,0.325576975941658,-0.008879348635673523,
0,2022-09-06 20:00:34.3440,00:18,60,0,2022-09-06 20:00:35.4460,1662465635.446066,0.1639910683404633,0.1526345505040384,-0.7744746755542703,-0.077392578125,-0.39105224609375,-0.86859130859375,103.11091613769531,-69.20635986328125,-73.54273986816406,2022-09-06 20:00:37.9290,1662465637.928971,0.8825487494468689,-1.418308973312378,-2.5197341442108154,1.292390525341034,0.31010469794273376,-0.02036905288696289,
0,2022-09-06 20:00:34.3440,00:18,60,0,2022-09-06 20:00:35.4630,1662465635.462837,-0.05592238815002888,0.33341551793690627,-0.8508293682196051,-0.0760955810546875,-0.4086456298828125,-0.833709716796875,103.48486328125,-68.90838623046875,-73.30329895019531,2022-09-06 20:00:37.9590,1662465637.958832,0.8735605478286743,-1.5448025465011597,-2.455169439315796,1.3365188837051392,0.3165897727012634,0.05005013942718506,
0,2022-09-06 20:00:34.3440,00:18,60,0,2022-09-06 20:00:35.4630,1662465635.462837,-0.05592238815002888,0.33341551793690627,-0.8508293682196051,-0.0760955810546875,-0.4086456298828125,-0.833709716796875,103.48486328125,-68.90838623046875,-73.30329895019531,2022-09-06 20:00:37.9890,1662465637.988889,0.8997061848640442,-1.5133843421936035,-2.22322154045105,1.1977553963661194,0.2758031189441681,-0.0035999417304992676,
0,2022-09-06 20:00:34.3440,00:18,60,0,2022-09-06 20:00:35.4800,1662465635.47962,-0.20753854585322098,0.3206954616223608,-0.9631431271876258,-0.069549560546875,-0.392364501953125,-0.8609161376953125,103.81135559082031,-68.11227416992188,-73.43984985351562,2022-09-06 20:00:38.0190,1662465638.018615,1.203139305114746,-1.5794709920883179,-1.888444185256958,1.184525966644287,0.29200804233551025,-0.12074163556098938,
0,2022-09-06 20:00:34.3440,00:18,60,0,2022-09-06 20:00:35.4800,1662465635.47962,-0.20753854585322098,0.3206954616223608,-0.9631431271876258,-0.069549560546875,-0.392364501953125,-0.8609161376953125,103.81135559082031,-68.11227416992188,-73.43984985351562,2022-09-06 20:00:38.0490,1662465638.0485492,1.1395834684371948,-1.7086055278778076,-1.4745312929153442,1.1533830761909485,0.2117011845111847,-0.141127347946167,
0,2022-09-06 20:00:34.3440,00:18,60,0,2022-09-06 20:00:35.4960,1662465635.4961638,-0.40743381937791456,0.15748310158463666,-1.101920717907764,-0.0602264404296875,-0.4163055419921875,-0.88531494140625,104.13580322265625,-67.38551330566406,-73.76087951660156,2022-09-06 20:00:38.0780,1662465638.078388,0.5474128127098083,-1.8032172918319702,-1.0130681991577148,1.114366054534912,0.1286170780658722,-0.1245870292186737,
0,2022-09-06 20:00:34.3440,00:18,60,0,2022-09-06 20:00:35.4960,1662465635.4961638,-0.40743381937791456,0.15748310158463666,-1.101920717907764,-0.0602264404296875,-0.4163055419921875,-0.88531494140625,104.13580322265625,-67.38551330566406,-73.76087951660156,2022-09-06 20:00:38.1080,1662465638.108245,-0.11444206535816193,-1.7407342195510864,-0.5747880339622498,0.9573376774787903,0.08317634463310242,-0.06846532225608826,
0,2022-09-06 20:00:34.3440,00:18,60,0,2022-09-06 20:00:35.5130,1662465635.512917,-0.6366233322612618,0.19715434813078403,-1.3008026586376824,-0.0664825439453125,-0.4092559814453125,-0.909881591796875,104.42001342773438,-66.23324584960938,-74.01487731933594,2022-09-06 20:00:38.1380,1662465638.138126,-0.726801335811615,-1.5283300876617432,-0.326816588640213,0.7887891530990601,0.05470356345176697,-0.15220552682876587,
0,2022-09-06 20:00:34.3440,00:18,60,0,2022-09-06 20:00:35.5130,1662465635.512917,-0.6366233322612618,0.19715434813078403,-1.3008026586376824,-0.0664825439453125,-0.4092559814453125,-0.909881591796875,104.42001342773438,-66.23324584960938,-74.01487731933594,2022-09-06 20:00:38.1680,1662465638.168058,-1.171573519706726,-1.14017915725708,-0.17417895793914795,0.6902018785476685,-0.004500597715377808,-0.22317427396774292,
0,2022-09-06 20:00:34.3440,00:18,60,0,2022-09-06 20:00:35.5290,1662465635.529368,-0.7989184996195626,0.11813969016867806,-1.4730181010565284,-0.058013916015625,-0.376983642578125,-0.8858795166015625,104.42001342773438,-66.23324584960938,-74.01487731933594,2022-09-06 20:00:38.1980,1662465638.197881,-1.022369384765625,-0.6814099550247192,0.044793128967285156,0.7129680514335632,0.03666767477989197,-0.19044417142868042,
0,2022-09-06 20:00:34.3440,00:18,60,0,2022-09-06 20:00:35.5290,1662465635.529368,-0.7989184996195626,0.11813969016867806,-1.4730181010565284,-0.058013916015625,-0.376983642578125,-0.8858795166015625,104.42001342773438,-66.23324584960938,-74.01487731933594,2022-09-06 20:00:38.2280,1662465638.227752,-0.4925731122493744,-0.3569663465023041,0.3607548177242279,0.7780011296272278,0.11088648438453674,-0.30319130420684814,
0,2022-09-06 20:00:34.3440,00:18,60,0,2022-09-06 20:00:35.5460,1662465635.5461931,-0.7867281460458339,-0.04815208303750469,-1.5979981204850748,-0.019073486328125,-0.3959808349609375,-0.947509765625,104.83268737792969,-64.84107971191406,-74.65846252441406,2022-09-06 20:00:38.2580,1662465638.2577062,-0.10870108753442764,-0.08562430739402771,0.6560816168785095,0.7662366628646851,0.10253998637199402,-0.35143959522247314,
0,2022-09-06 20:00:34.3440,00:18,60,0,2022-09-06 20:00:35.5460,1662465635.5461931,-0.7867281460458339,-0.04815208303750469,-1.5979981204850748,-0.019073486328125,-0.3959808349609375,-0.947509765625,104.83268737792969,-64.84107971191406,-74.65846252441406,2022-09-06 20:00:38.2880,1662465638.287568,0.045816052705049515,0.23506823182106018,0.8774369359016418,0.728715181350708,0.05278092622756958,-0.3182060122489929,
0,2022-09-06 20:00:34.3440,00:18,60,0,2022-09-06 20:00:35.5630,1662465635.5627918,-0.6013966352583476,-0.03697852436796824,-1.5857590310633978,0.0181121826171875,-0.375244140625,-0.953277587890625,104.96174621582031,-63.64106750488281,-74.76606750488281,2022-09-06 20:00:38.3170,1662465638.317442,-0.052575498819351196,0.5192477703094482,1.043612003326416,0.7814039587974548,0.08007892966270447,-0.37362581491470337,
0,2022-09-06 20:00:34.3440,00:18,60,0,2022-09-06 20:00:35.5630,1662465635.5627918,-0.6013966352583476,-0.03697852436796824,-1.5857590310633978,0.0181121826171875,-0.375244140625,-0.953277587890625,104.96174621582031,-63.64106750488281,-74.76606750488281,2022-09-06 20:00:38.3480,1662465638.347515,-0.194962739944458,0.6117510199546814,1.1848512887954712,0.855118989944458,0.1162269115447998,-0.39823830127716064,
0,2022-09-06 20:00:34.3440,00:18,60,0,2022-09-06 20:00:35.5790,1662465635.579434,-0.4022166868024493,-0.07832836134919254,-1.2827895696566045,0.06915283203125,-0.357177734375,-0.9870452880859375,104.91751098632812,-62.783416748046875,-74.8505859375,2022-09-06 20:00:38.3770,1662465638.377198,-0.35915008187294006,0.6703137159347534,1.297132134437561,0.8762524127960205,0.10202094912528992,-0.39327922463417053,
0,2022-09-06 20:00:34.3440,00:18,60,0,2022-09-06 20:00:35.5790,1662465635.579434,-0.4022166868024493,-0.07832836134919254,-1.2827895696566045,0.06915283203125,-0.357177734375,-0.9870452880859375,104.91751098632812,-62.783416748046875,-74.8505859375,2022-09-06 20:00:38.4070,1662465638.4072971,-0.6043044924736023,0.6749380230903625,1.398260235786438,0.9355024099349976,0.12674012780189514,-0.35855013132095337,
0,2022-09-06 20:00:34.3440,00:18,60,0,2022-09-06 20:00:35.5960,1662465635.596323,-0.24316365175521096,0.009930927704905479,-1.0253068996683643,0.118927001953125,-0.344390869140625,-1.0859832763671875,104.98541259765625,-62.07232666015625,-74.76158142089844,2022-09-06 20:00:38.4370,1662465638.4371,-0.7824917435646057,0.7244153022766113,1.5173187255859375,0.9457257390022278,0.11770686507225037,-0.32701027393341064,
0,2022-09-06 20:00:34.3440,00:18,60,0,2022-09-06 20:00:35.5960,1662465635.596323,-0.24316365175521096,0.009930927704905479,-1.0253068996683643,0.118927001953125,-0.344390869140625,-1.0859832763671875,104.98541259765625,-62.07232666015625,-74.76158142089844,2022-09-06 20:00:38.4670,1662465638.466856,-0.9139024615287781,0.7696639895439148,1.6531964540481567,1.0174724459648132,0.1226506233215332,-0.2987205684185028,
0,2022-09-06 20:00:34.3440,00:18,60,0,2022-09-06 20:00:35.6130,1662465635.613124,-0.17732365170572698,0.1217203102542896,-0.8231146497034775,0.0990447998046875,-0.3162384033203125,-1.03277587890625,104.9891357421875,-62.07466125488281,-74.61734008789062,2022-09-06 20:00:38.4970,1662465638.496808,-1.0956469774246216,0.7696341276168823,1.6914801597595215,1.0558633208274841,0.08462557196617126,-0.27865538001060486,
0,2022-09-06 20:00:34.3440,00:18,60,0,2022-09-06 20:00:35.6130,1662465635.613124,-0.17732365170572698,0.1217203102542896,-0.8231146497034775,0.0990447998046875,-0.3162384033203125,-1.03277587890625,104.9891357421875,-62.07466125488281,-74.61734008789062,2022-09-06 20:00:38.5270,1662465638.526702,-1.1181904077529907,0.7074485421180725,1.675126314163208,1.099763035774231,0.10580477118492126,-0.24752727150917053,
0,2022-09-06 20:00:34.3440,00:18,60,0,2022-09-06 20:00:35.6290,1662465635.6294699,-0.026406840104789695,-0.15459809917575382,-0.7143143991615983,0.154266357421875,-0.3270416259765625,-1.040863037109375,104.9891357421875,-62.07466125488281,-74.61734008789062,2022-09-06 20:00:38.5560,1662465638.5564961,-1.2407304048538208,0.6999802589416504,1.6034523248672485,1.093277931213379,0.0437471866607666,-0.20495539903640747,
0,2022-09-06 20:00:34.3440,00:18,60,0,2022-09-06 20:00:35.6290,1662465635.6294699,-0.026406840104789695,-0.15459809917575382,-0.7143143991615983,0.154266357421875,-0.3270416259765625,-1.040863037109375,104.9891357421875,-62.07466125488281,-74.61734008789062,2022-09-06 20:00:38.5860,1662465638.58641,-1.3136711120605469,0.6552172899246216,1.517690658569336,1.1034402251243591,0.06074543297290802,-0.16239860653877258,
0,2022-09-06 20:00:34.3440,00:18,60,0,2022-09-06 20:00:35.6460,1662465635.646326,0.2186945276595629,-0.3705519677575162,-0.7390820636154443,0.1424102783203125,-0.3232574462890625,-1.1305084228515625,104.80671691894531,-61.400970458984375,-75.07585144042969,2022-09-06 20:00:38.6160,1662465638.616251,-1.4788953065872192,0.6620259284973145,1.4237602949142456,1.0587930083274841,0.024933025240898132,-0.1413871943950653,
0,2022-09-06 20:00:34.3440,00:18,60,0,2022-09-06 20:00:35.6460,1662465635.646326,0.2186945276595629,-0.3705519677575162,-0.7390820636154443,0.1424102783203125,-0.3232574462890625,-1.1305084228515625,104.80671691894531,-61.400970458984375,-75.07585144042969,2022-09-06 20:00:38.6460,1662465638.6462069,-1.6505004167556763,0.6452022194862366,1.326861023902893,1.046860694885254,0.02375808358192444,-0.0904991626739502,
0,2022-09-06 20:00:34.3440,00:18,60,0,2022-09-06 20:00:35.6630,1662465635.6628141,0.30187170640546274,-0.3305193302514451,-0.9031375804542875,0.0878448486328125,-0.3179473876953125,-1.0966339111328125,104.70635986328125,-60.67921447753906,-75.74354553222656,2022-09-06 20:00:38.6760,1662465638.6760402,-1.832937240600586,0.6910378932952881,1.3358871936798096,1.057648777961731,0.050827160477638245,-0.056792303919792175,
0,2022-09-06 20:00:34.3440,00:18,60,0,2022-09-06 20:00:35.6630,1662465635.6628141,0.30187170640546274,-0.3305193302514451,-0.9031375804542875,0.0878448486328125,-0.3179473876953125,-1.0966339111328125,104.70635986328125,-60.67921447753906,-75.74354553222656,2022-09-06 20:00:38.7060,1662465638.7059221,-1.8718138933181763,0.6562170386314392,1.3936375379562378,1.1357280015945435,0.09788523614406586,-0.013014823198318481,
0,2022-09-06 20:00:34.3440,00:18,60,0,2022-09-06 20:00:35.6800,1662465635.67963,0.1677080422738869,-0.3046770802977522,-1.169509083212885,0.050750732421875,-0.3208465576171875,-1.03472900390625,104.41136169433594,-60.073089599609375,-76.20068359375,2022-09-06 20:00:38.7360,1662465638.7357779,-1.7930316925048828,0.6413347721099854,1.4529391527175903,1.0360730290412903,0.15803536400198936,-0.05514419078826904,
0,2022-09-06 20:00:34.3440,00:18,60,0,2022-09-06 20:00:35.6800,1662465635.67963,0.1677080422738869,-0.3046770802977522,-1.169509083212885,0.050750732421875,-0.3208465576171875,-1.03472900390625,104.41136169433594,-60.073089599609375,-76.20068359375,2022-09-06 20:00:38.7660,1662465638.7656941,-1.7009507417678833,0.7461764812469482,1.4572339057922363,0.9658520817756653,0.1760101616382599,-0.06378065049648285,
0,2022-09-06 20:00:34.3440,00:18,60,0,2022-09-06 20:00:35.6950,1662465635.694992,-0.05342061462200845,-0.35187069165893736,-1.3697830582445878,0.061798095703125,-0.3266754150390625,-1.024078369140625,104.51980590820312,-59.72065734863281,-76.523681640625,2022-09-06 20:00:38.7960,1662465638.795583,-1.5864753723144531,0.8356698751449585,1.4665659666061401,1.0158398747444153,0.1880645640194416,-0.027724117040634155,
0,2022-09-06 20:00:34.3440,00:18,60,0,2022-09-06 20:00:35.6950,1662465635.694992,-0.05342061462200845,-0.35187069165893736,-1.3697830582445878,0.061798095703125,-0.3266754150390625,-1.024078369140625,104.51980590820312,-59.72065734863281,-76.523681640625,2022-09-06 20:00:38.8250,1662465638.825433,-1.7512811422348022,0.8790876865386963,1.4811471700668335,1.0109418034553528,0.18060296773910522,-0.05573926866054535,
0,2022-09-06 20:00:34.3440,00:18,60,0,2022-09-06 20:00:35.7130,1662465635.712987,-0.32297592646379564,0.4481745914178377,-1.4570106386923891,0.1161651611328125,-0.3352203369140625,-0.9141082763671875,104.599609375,-58.51054382324219,-76.22015380859375,2022-09-06 20:00:38.8560,1662465638.855737,-1.7800010442733765,0.904589056968689,1.5562409162521362,1.0910655856132507,0.21502674371004105,-0.039946526288986206,
0,2022-09-06 20:00:34.3440,00:18,60,0,2022-09-06 20:00:35.7130,1662465635.712987,-0.32297592646379564,0.4481745914178377,-1.4570106386923891,0.1161651611328125,-0.3352203369140625,-0.9141082763671875,104.599609375,-58.51054382324219,-76.22015380859375,2022-09-06 20:00:38.8850,1662465638.8852382,-1.9660375118255615,0.8795260190963745,1.5960191488265991,1.1980907917022705,0.21350081264972687,0.0020152628421783447,
0,2022-09-06 20:00:34.3440,00:18,60,0,2022-09-06 20:00:35.7300,1662465635.729712,0.08901136574593639,0.6733621721311228,-1.3678285643205785,0.074249267578125,-0.35845947265625,-0.964752197265625,104.599609375,-58.51054382324219,-76.22015380859375,2022-09-06 20:00:38.9150,1662465638.915114,-2.311018943786621,0.8075394630432129,1.5163078308105469,1.2041636109352112,0.20568831264972687,-0.006804428994655609,
0,2022-09-06 20:00:34.3440,00:18,60,0,2022-09-06 20:00:35.7300,1662465635.729712,0.08901136574593639,0.6733621721311228,-1.3678285643205785,0.074249267578125,-0.35845947265625,-0.964752197265625,104.599609375,-58.51054382324219,-76.22015380859375,2022-09-06 20:00:38.9450,1662465638.9450002,-2.636666774749756,0.855650007724762,1.3704465627670288,1.1438454389572144,0.2031858265399933,0.0005196332931518555,
0,2022-09-06 20:00:34.3440,00:18,60,0,2022-09-06 20:00:35.7460,1662465635.746186,0.33912320478516406,0.7090224317595019,-1.3997521426234674,0.0288543701171875,-0.3395538330078125,-1.0794219970703125,105.0833740234375,-57.83213806152344,-75.9813232421875,2022-09-06 20:00:38.9750,1662465638.9748821,-2.8283145427703857,0.8321819305419922,1.1716777086257935,1.1530618071556091,0.1738736927509308,0.010941427201032639,
0,2022-09-06 20:00:34.3440,00:18,60,0,2022-09-06 20:00:35.7460,1662465635.746186,0.33912320478516406,0.7090224317595019,-1.3997521426234674,0.0288543701171875,-0.3395538330078125,-1.0794219970703125,105.0833740234375,-57.83213806152344,-75.9813232421875,2022-09-06 20:00:39.0050,1662465639.00476,-2.6004738807678223,0.9015501141548157,1.028107762336731,1.1433116793632507,0.18096891045570374,-0.0017993524670600891,
0,2022-09-06 20:00:34.3440,00:18,60,0,2022-09-06 20:00:35.7630,1662465635.762799,0.2590651203079651,0.777154880875326,-1.6070667166290127,0.0566558837890625,-0.338958740234375,-1.047576904296875,105.36990356445312,-57.22468566894531,-75.62979125976562,2022-09-06 20:00:39.0350,1662465639.034634,-1.8947551250457764,0.735065758228302,0.8404672145843506,1.1904916167259216,0.196883887052536,-0.03430092707276344,
0,2022-09-06 20:00:34.3440,00:18,60,0,2022-09-06 20:00:35.7630,1662465635.762799,0.2590651203079651,0.777154880875326,-1.6070667166290127,0.0566558837890625,-0.338958740234375,-1.047576904296875,105.36990356445312,-57.22468566894531,-75.62979125976562,2022-09-06 20:00:39.0650,1662465639.064807,-1.2447224855422974,0.5188567638397217,0.5422605872154236,1.166810154914856,0.10319483280181885,-0.018752051517367363,
0,2022-09-06 20:00:34.3440,00:18,60,0,2022-09-06 20:00:35.7800,1662465635.779585,0.24838744223340137,0.9379642706614717,-1.754618357876526,0.031463623046875,-0.3042755126953125,-0.897552490234375,105.97268676757812,-56.0274658203125,-75.010009765625,2022-09-06 20:00:39.0960,1662465639.0958319,-1.0819603204727173,0.5435466766357422,0.18709620833396912,0.9937450885772705,-0.040588825941085815,-0.07681154273450375,
0,2022-09-06 20:00:34.3440,00:18,60,0,2022-09-06 20:00:35.7800,1662465635.779585,0.24838744223340137,0.9379642706614717,-1.754618357876526,0.031463623046875,-0.3042755126953125,-0.897552490234375,105.97268676757812,-56.0274658203125,-75.010009765625,2022-09-06 20:00:39.1240,1662465639.1243892,-0.6173560619354248,0.5085756778717041,-0.08405811339616776,0.9760753512382507,-0.025055348873138428,-0.1786181665956974,
0,2022-09-06 20:00:34.3440,00:18,60,0,2022-09-06 20:00:35.7960,1662465635.796008,0.647485301083259,1.0648982513818095,-1.983165516304946,0.017120361328125,-0.3059234619140625,-0.7972869873046875,106.53692626953125,-55.53404235839844,-74.3448486328125,2022-09-06 20:00:39.1540,1662465639.1540031,0.03590216487646103,0.3713056743144989,-0.30863073468208313,0.9447341561317444,-0.05075123906135559,-0.23095542890951037,
0,2022-09-06 20:00:34.3440,00:18,60,0,2022-09-06 20:00:35.7960,1662465635.796008,0.647485301083259,1.0648982513818095,-1.983165516304946,0.017120361328125,-0.3059234619140625,-0.7972869873046875,106.53692626953125,-55.53404235839844,-74.3448486328125,2022-09-06 20:00:39.1840,1662465639.184102,0.4515308141708374,0.2004719078540802,-0.6021798253059387,0.945451557636261,-0.05380299687385559,-0.21800051955506206,
0,2022-09-06 20:00:34.3440,00:18,60,0,2022-09-06 20:00:35.8140,1662465635.813507,0.988724919986709,0.3827356634285197,-1.9034363322223717,0.079498291015625,-0.268157958984375,-0.759124755859375,106.54049682617188,-54.574310302734375,-73.77264404296875,2022-09-06 20:00:39.2140,1662465639.2139301,0.7487593293190002,0.002122858539223671,-0.9559593200683594,0.9772815704345703,-0.004227250814437866,-0.23138230480253696,
0,2022-09-06 20:00:34.3440,00:18,60,0,2022-09-06 20:00:35.8140,1662465635.813507,0.988724919986709,0.3827356634285197,-1.9034363322223717,0.079498291015625,-0.268157958984375,-0.759124755859375,106.54049682617188,-54.574310302734375,-73.77264404296875,2022-09-06 20:00:39.2440,1662465639.243747,0.7985100746154785,-0.25667354464530945,-1.2926087379455566,1.0053880214691162,-0.030807942152023315,-0.23631112277507782,
0,2022-09-06 20:00:34.3440,00:18,60,0,2022-09-06 20:00:35.8300,1662465635.829699,1.0296883322937627,-0.6827282433688225,-1.7482813660626824,0.1534271240234375,-0.3388824462890625,-0.9340362548828125,106.54049682617188,-54.574310302734375,-73.77264404296875,2022-09-06 20:00:39.2740,1662465639.273703,0.6401782035827637,-0.46011215448379517,-1.5556780099868774,1.0047776699066162,-0.027222037315368652,-0.23422065190970898,
0,2022-09-06 20:00:34.3440,00:18,60,0,2022-09-06 20:00:35.8300,1662465635.829699,1.0296883322937627,-0.6827282433688225,-1.7482813660626824,0.1534271240234375,-0.3388824462890625,-0.9340362548828125,106.54049682617188,-54.574310302734375,-73.77264404296875,2022-09-06 20:00:39.3040,1662465639.3036199,0.3295556306838989,-0.6212584376335144,-1.725709080696106,1.0205856561660767,-0.02229335904121399,-0.2008193365763873,
0,2022-09-06 20:00:34.3440,00:18,60,0,2022-09-06 20:00:35.8460,1662465635.846447,1.1342714672495016,-1.2197794445814387,-1.572626451095999,0.24090576171875,-0.2815399169921875,-0.9663848876953125,105.99333190917969,-54.12956237792969,-74.64990234375,2022-09-06 20:00:39.3330,1662465639.333499,0.3008648455142975,-0.6979202032089233,-1.9050694704055786,0.9869092702865601,0.09184248745441437,-0.16361879371106625,
0,2022-09-06 20:00:34.3440,00:18,60,0,2022-09-06 20:00:35.8460,1662465635.846447,1.1342714672495016,-1.2197794445814387,-1.572626451095999,0.24090576171875,-0.2815399169921875,-0.9663848876953125,105.99333190917969,-54.12956237792969,-74.64990234375,2022-09-06 20:00:39.3630,1662465639.36338,0.5569531321525574,-0.6807923316955566,-2.1388931274414062,0.9521652460098267,0.19934076815843582,-0.1438736915588379,
0,2022-09-06 20:00:34.3440,00:18,60,0,2022-09-06 20:00:35.8630,1662465635.863045,1.4594535563603188,-1.0374802090111166,-1.407099537754887,0.2878570556640625,-0.3420562744140625,-0.921051025390625,105.16825866699219,-54.00944519042969,-75.80914306640625,2022-09-06 20:00:39.3930,1662465639.393431,0.7022202610969543,-0.6405336260795593,-2.3016254901885986,0.8427140712738037,0.23477177042514086,-0.10221710428595543,
0,2022-09-06 20:00:34.3440,00:18,60,0,2022-09-06 20:00:35.8630,1662465635.863045,1.4594535563603188,-1.0374802090111166,-1.407099537754887,0.2878570556640625,-0.3420562744140625,-0.921051025390625,105.16825866699219,-54.00944519042969,-75.80914306640625,2022-09-06 20:00:39.4230,1662465639.4234,0.6839339137077332,-0.42516934871673584,-2.366239070892334,0.7065293788909912,0.31132518500089645,-0.04789576679468155,
0,2022-09-06 20:00:34.3440,00:18,60,0,2022-09-06 20:00:35.8800,1662465635.8797069,1.688778091510933,-1.0456012524392042,-1.21108688678342,0.2360687255859375,-0.2607421875,-0.8203887939453125,104.31230163574219,-53.57835388183594,-76.7333984375,2022-09-06 20:00:39.4530,1662465639.453049,0.6714205145835876,-0.30909496545791626,-2.369793176651001,0.8190934658050537,0.4195864498615265,0.014405876398086548,
0,2022-09-06 20:00:34.3440,00:18,60,0,2022-09-06 20:00:35.8800,1662465635.8797069,1.688778091510933,-1.0456012524392042,-1.21108688678342,0.2360687255859375,-0.2607421875,-0.8203887939453125,104.31230163574219,-53.57835388183594,-76.7333984375,2022-09-06 20:00:39.4830,1662465639.4829578,0.7118159532546997,-0.1280045062303543,-2.465606451034546,0.7381301522254944,0.46180757880210876,0.020112469792366028,
0,2022-09-06 20:00:34.3440,00:18,60,0,2022-09-06 20:00:35.8960,1662465635.896127,1.9138330468019322,-1.0292342633279044,-1.1077551712239095,0.1680908203125,-0.237030029296875,-0.8845062255859375,103.58587646484375,-54.16925048828125,-77.77201843261719,2022-09-06 20:00:39.5130,1662465639.5128078,1.054596185684204,0.16219907999038696,-2.5942611694335938,0.6749892830848694,0.5653386116027832,0.041459567844867706,
0,2022-09-06 20:00:34.3440,00:18,60,0,2022-09-06 20:00:35.8960,1662465635.896127,1.9138330468019322,-1.0292342633279044,-1.1077551712239095,0.1680908203125,-0.237030029296875,-0.8845062255859375,103.58587646484375,-54.16925048828125,-77.77201843261719,2022-09-06 20:00:39.5430,1662465639.542783,1.6375274658203125,0.43924692273139954,-2.6218466758728027,0.7141586542129517,0.7157751321792603,0.05386494845151901,
0,2022-09-06 20:00:34.3440,00:18,60,0,2022-09-06 20:00:35.9130,1662465635.912796,2.3243534698832486,-0.8067343447867271,-1.1134801686192528,0.1645355224609375,-0.189300537109375,-0.7619171142578125,102.69587707519531,-54.326873779296875,-78.48390197753906,2022-09-06 20:00:39.5730,1662465639.5725842,2.283280849456787,0.5426649451255798,-2.44036865234375,0.8352370262145996,0.806229293346405,0.004243373870849609,
0,2022-09-06 20:00:34.3440,00:18,60,0,2022-09-06 20:00:35.9130,1662465635.912796,2.3243534698832486,-0.8067343447867271,-1.1134801686192528,0.1645355224609375,-0.189300537109375,-0.7619171142578125,102.69587707519531,-54.326873779296875,-78.48390197753906,2022-09-06 20:00:39.6030,1662465639.602534,2.294741153717041,0.27782687544822693,-2.2605414390563965,0.9476943016052246,0.7770393192768097,-0.12730266153812408,
0,2022-09-06 20:00:34.3440,00:18,60,0,2022-09-06 20:00:35.9290,1662465635.9291658,2.7145265432880326,0.7237041725329997,-1.151464302614835,0.1551666259765625,-0.152099609375,-0.5239715576171875,102.69587707519531,-54.326873779296875,-78.48390197753906,2022-09-06 20:00:39.6320,1662465639.632392,1.7414650917053223,-0.14437736570835114,-2.022660970687866,0.9311841726303101,0.7515114545822144,-0.1820971816778183,
0,2022-09-06 20:00:34.3440,00:18,60,0,2022-09-06 20:00:35.9290,1662465635.9291658,2.7145265432880326,0.7237041725329997,-1.151464302614835,0.1551666259765625,-0.152099609375,-0.5239715576171875,102.69587707519531,-54.326873779296875,-78.48390197753906,2022-09-06 20:00:39.6620,1662465639.66226,1.1650748252868652,-0.44978469610214233,-1.7729090452194214,0.9042063355445862,0.7551887035369873,-0.16383257508277893,
0,2022-09-06 20:00:34.3440,00:18,60,0,2022-09-06 20:00:35.9460,1662465635.946336,2.0868010985448344,0.824979927730969,-1.4912658145296422,0.1349334716796875,-0.2076416015625,-0.222076416015625,102.75123596191406,-54.83837890625,-77.84347534179688,2022-09-06 20:00:39.6920,1662465639.692002,0.9757689833641052,-0.6940732598304749,-1.5730918645858765,0.9291085600852966,0.765335738658905,-0.17887791991233826,
0,2022-09-06 20:00:34.3440,00:18,60,0,2022-09-06 20:00:35.9460,1662465635.946336,2.0868010985448344,0.824979927730969,-1.4912658145296422,0.1349334716796875,-0.2076416015625,-0.222076416015625,102.75123596191406,-54.83837890625,-77.84347534179688,2022-09-06 20:00:39.7220,1662465639.7220268,0.8789593577384949,-0.860981285572052,-1.325047254562378,0.9316262006759644,0.67814701795578,-0.18855202198028564,
0,2022-09-06 20:00:34.3440,00:18,60,0,2022-09-06 20:00:35.9630,1662465635.9628649,0.6508265029868723,-0.5298273767557762,-2.322047971327567,0.4781341552734375,-0.437103271484375,-1.178985595703125,102.39860534667969,-54.559051513671875,-78.02180480957031,2022-09-06 20:00:39.7520,1662465639.7522979,0.6639130711555481,-0.9052555561065674,-1.0285930633544922,0.93595951795578,0.5668798685073853,-0.17365959286689758,
0,2022-09-06 20:00:34.3440,00:18,60,0,2022-09-06 20:00:35.9630,1662465635.9628649,0.6508265029868723,-0.5298273767557762,-2.322047971327567,0.4781341552734375,-0.437103271484375,-1.178985595703125,102.39860534667969,-54.559051513671875,-78.02180480957031,2022-09-06 20:00:39.7820,1662465639.781771,0.26029345393180847,-0.8361603617668152,-0.671495795249939,0.9214789271354675,0.47244322299957275,-0.15800410509109497,
0,2022-09-06 20:00:34.3440,00:18,60,0,2022-09-06 20:00:35.9790,1662465635.979447,0.347622150771934,-0.1996305553123397,-2.629985559747903,0.911407470703125,-0.9406585693359375,-0.9743499755859375,102.11181640625,-53.322662353515625,-78.5181884765625,2022-09-06 20:00:39.8120,1662465639.8116841,0.03791152313351631,-0.6950162649154663,-0.27533456683158875,0.91288822889328,0.432556688785553,-0.16677799820899963,
0,2022-09-06 20:00:34.3440,00:18,60,0,2022-09-06 20:00:35.9790,1662465635.979447,0.347622150771934,-0.1996305553123397,-2.629985559747903,0.911407470703125,-0.9406585693359375,-0.9743499755859375,102.11181640625,-53.322662353515625,-78.5181884765625,2022-09-06 20:00:39.8420,1662465639.842194,-0.039749450981616974,-0.6065135598182678,0.05082577094435692,0.9982458353042603,0.37057554721832275,-0.15833988785743713,
0,2022-09-06 20:00:34.3440,00:18,60,0,2022-09-06 20:00:35.9960,1662465635.9961948,0.1234311249385565,-0.19623529123859768,-2.3906693768195297,0.5795440673828125,-0.609832763671875,-0.8327789306640625,101.77545166015625,-52.492706298828125,-78.59580993652344,2022-09-06 20:00:39.8720,1662465639.871558,-0.06562019884586334,-0.484512060880661,0.24346642196178436,0.9529730081558228,0.31832945346832275,-0.14334046840667725,
0,2022-09-06 20:00:34.3440,00:18,60,0,2022-09-06 20:00:35.9960,1662465635.9961948,0.1234311249385565,-0.19623529123859768,-2.3906693768195297,0.5795440673828125,-0.609832763671875,-0.8327789306640625,101.77545166015625,-52.492706298828125,-78.59580993652344,2022-09-06 20:00:39.9010,1662465639.901458,-0.2973058819770813,-0.3835601210594177,0.37557509541511536,0.971069872379303,0.23934990167617798,-0.0996546745300293,
0,2022-09-06 20:00:34.3440,00:18,60,0,2022-09-06 20:00:36.0130,1662465636.0128698,-0.1873264847600646,-0.6966645653532072,-2.3545015186873814,0.2904510498046875,-0.446685791015625,-0.8255615234375,101.05952453613281,-51.22718811035156,-79.04945373535156,2022-09-06 20:00:39.9310,1662465639.931083,-0.36470702290534973,-0.1054811030626297,0.5416459441184998,0.9159703850746155,0.1975560188293457,-0.06544440984725952,
0,2022-09-06 20:00:34.3440,00:18,60,0,2022-09-06 20:00:36.0130,1662465636.0128698,-0.1873264847600646,-0.6966645653532072,-2.3545015186873814,0.2904510498046875,-0.446685791015625,-0.8255615234375,101.05952453613281,-51.22718811035156,-79.04945373535156,2022-09-06 20:00:39.9610,1662465639.96118,-0.32159125804901123,0.18660348653793335,0.8293722867965698,0.9705814719200134,0.17671245336532593,-0.07340964674949646,
0,2022-09-06 20:00:34.3440,00:18,60,0,2022-09-06 20:00:36.0290,1662465636.029448,-0.7384839176346124,-1.8628359087718958,-2.207344291597309,0.280120849609375,-0.4825439453125,-1.07318115234375,101.05952453613281,-51.22718811035156,-79.04945373535156,2022-09-06 20:00:39.9910,1662465639.990879,-0.04274816811084747,0.3584465980529785,1.1335381269454956,0.99540776014328,0.2169499397277832,-0.10896244645118713,
0,2022-09-06 20:00:34.3440,00:18,60,0,2022-09-06 20:00:36.0290,1662465636.029448,-0.7384839176346124,-1.8628359087718958,-2.207344291597309,0.280120849609375,-0.4825439453125,-1.07318115234375,101.05952453613281,-51.22718811035156,-79.04945373535156,2022-09-06 20:00:40.0210,1662465640.020731,0.2346256524324417,0.4553353488445282,1.3513962030410767,1.0151984691619873,0.20773369073867798,-0.14936766028404236,
0,2022-09-06 20:00:34.3440,00:18,60,0,2022-09-06 20:00:36.0460,1662465636.046165,-1.245128477101249,-2.4243775393688805,-1.9860976566651232,0.3244171142578125,-0.4957122802734375,-1.1638641357421875,99.49986267089844,-49.23979187011719,-80.03277587890625,2022-09-06 20:00:40.0510,1662465640.050704,0.3270011246204376,0.4637085795402527,1.4693962335586548,1.0409398674964905,0.17295879125595093,-0.1115565299987793,
0,2022-09-06 20:00:34.3440,00:18,60,0,2022-09-06 20:00:36.0460,1662465636.046165,-1.245128477101249,-2.4243775393688805,-1.9860976566651232,0.3244171142578125,-0.4957122802734375,-1.1638641357421875,99.49986267089844,-49.23979187011719,-80.03277587890625,2022-09-06 20:00:40.0810,1662465640.080593,0.01398515049368143,0.4672101140022278,1.5191856622695923,1.0259254574775696,0.13940474390983582,-0.06602415442466736,
0,2022-09-06 20:00:34.3440,00:18,60,0,2022-09-06 20:00:36.0630,1662465636.062707,-1.4885046491114482,-1.821302313675456,-1.8715316623632225,0.308685302734375,-0.4195709228515625,-0.9798583984375,97.80914306640625,-47.804901123046875,-80.93797302246094,2022-09-06 20:00:40.1110,1662465640.110601,-0.664105236530304,0.5307608246803284,1.583856225013733,0.9838263988494873,0.09640544652938843,-0.05705195665359497,
0,2022-09-06 20:00:34.3440,00:18,60,0,2022-09-06 20:00:36.0630,1662465636.062707,-1.4885046491114482,-1.821302313675456,-1.8715316623632225,0.308685302734375,-0.4195709228515625,-0.9798583984375,97.80914306640625,-47.804901123046875,-80.93797302246094,2022-09-06 20:00:40.1400,1662465640.140335,-1.2083327770233154,0.5897850394248962,1.7640265226364136,0.9969184994697571,0.16111794114112854,-0.10992369055747986,
0,2022-09-06 20:00:34.3440,00:18,60,0,2022-09-06 20:00:36.0790,1662465636.079375,-1.4310512096507326,-0.7053789610721645,-1.677958733266377,0.23223876953125,-0.3415374755859375,-0.71612548828125,96.70668029785156,-46.223602294921875,-81.13201904296875,2022-09-06 20:00:40.1700,1662465640.170088,-1.43310546875,0.5445488095283508,2.021754264831543,1.0152138471603394,0.22892796993255615,-0.12391580641269684,
0,2022-09-06 20:00:34.3440,00:18,60,0,2022-09-06 20:00:36.0790,1662465636.079375,-1.4310512096507326,-0.7053789610721645,-1.677958733266377,0.23223876953125,-0.3415374755859375,-0.71612548828125,96.70668029785156,-46.223602294921875,-81.13201904296875,2022-09-06 20:00:40.2000,1662465640.200012,-1.4336804151535034,0.5139467120170593,2.1999876499176025,1.0214242339134216,0.26937898993492126,-0.07603372633457184,
0,2022-09-06 20:00:34.3440,00:18,60,0,2022-09-06 20:00:36.0960,1662465636.096401,-1.1518725652099442,-0.2885846630948394,-1.3836927486180717,0.203338623046875,-0.381439208984375,-0.683319091796875,96.00978088378906,-44.45252990722656,-80.85493469238281,2022-09-06 20:00:40.2300,1662465640.230002,-1.5800726413726807,0.47240275144577026,2.222630500793457,1.0685278177261353,0.3319093585014343,-0.08110000193119049,
0,2022-09-06 20:00:34.3440,00:18,60,0,2022-09-06 20:00:36.0960,1662465636.096401,-1.1518725652099442,-0.2885846630948394,-1.3836927486180717,0.203338623046875,-0.381439208984375,-0.683319091796875,96.00978088378906,-44.45252990722656,-80.85493469238281,2022-09-06 20:00:40.2600,1662465640.2599149,-1.8377794027328491,0.47022905945777893,2.237082004547119,1.1325995326042175,0.36560073494911194,-0.09565684199333191,
0,2022-09-06 20:00:34.3440,00:18,60,0,2022-09-06 20:00:36.1130,1662465636.112773,-0.6426106510239779,-0.5120888596830854,-1.0814396775445096,0.224517822265625,-0.4327545166015625,-0.8706817626953125,95.28263854980469,-43.88374328613281,-80.75051879882812,2022-09-06 20:00:40.2900,1662465640.289773,-2.256086826324463,0.5220962762832642,2.205718994140625,1.1420142650604248,0.34877023100852966,-0.09831169247627258,
0,2022-09-06 20:00:34.3440,00:18,60,0,2022-09-06 20:00:36.1130,1662465636.112773,-0.6426106510239779,-0.5120888596830854,-1.0814396775445096,0.224517822265625,-0.4327545166015625,-0.8706817626953125,95.28263854980469,-43.88374328613281,-80.75051879882812,2022-09-06 20:00:40.3200,1662465640.319717,-2.473501443862915,0.5218265056610107,2.180743932723999,1.1242836117744446,0.35778821259737015,-0.0765831470489502,
0,2022-09-06 20:00:34.3440,00:18,60,0,2022-09-06 20:00:36.1290,1662465636.129262,0.18449820768240047,-0.5298454862511888,-1.0192793671731881,0.2895355224609375,-0.4947357177734375,-0.8946075439453125,95.28263854980469,-43.88374328613281,-80.75051879882812,2022-09-06 20:00:40.3500,1662465640.3496099,-2.3775079250335693,0.5487529039382935,2.085775852203369,1.0915685296058655,0.3946991264820099,-0.07612553238868713,
0,2022-09-06 20:00:34.3440,00:18,60,0,2022-09-06 20:00:36.1290,1662465636.129262,0.18449820768240047,-0.5298454862511888,-1.0192793671731881,0.2895355224609375,-0.4947357177734375,-0.8946075439453125,95.28263854980469,-43.88374328613281,-80.75051879882812,2022-09-06 20:00:40.3800,1662465640.379525,-1.778883457183838,0.548112154006958,2.011941432952881,1.1042031049728394,0.42536928807385266,-0.10650559887290001,
0,2022-09-06 20:00:34.3440,00:18,60,0,2022-09-06 20:00:36.1460,1662465636.146203,0.6874044879268927,-0.5450566634493943,-1.2909196678323982,0.430328369140625,-0.68609619140625,-0.7590789794921875,94.71733093261719,-43.58912658691406,-81.06204223632812,2022-09-06 20:00:40.4100,1662465640.409655,-1.5164551734924316,0.5591216683387756,1.8650028705596924,1.1199806332588196,0.3919066935777664,-0.11616447195410728,
0,2022-09-06 20:00:34.3440,00:18,60,0,2022-09-06 20:00:36.1460,1662465636.146203,0.6874044879268927,-0.5450566634493943,-1.2909196678323982,0.430328369140625,-0.68609619140625,-0.7590789794921875,94.71733093261719,-43.58912658691406,-81.06204223632812,2022-09-06 20:00:40.4390,1662465640.4392738,-1.3927675485610962,0.6263467669487,1.7353720664978027,1.0905614495277405,0.3844451308250427,-0.12333628162741661,
0,2022-09-06 20:00:34.3440,00:18,60,0,2022-09-06 20:00:36.1630,1662465636.162931,0.6628908890410403,-0.8357974217627618,-1.5808044861714143,0.472198486328125,-0.7240142822265625,-0.825531005859375,93.83946228027344,-43.64607238769531,-81.966796875,2022-09-06 20:00:40.4690,1662465640.469167,-1.266722559928894,0.6531621217727661,1.6285675764083862,1.0872807502746582,0.40896593034267426,-0.18060249090194702,
0,2022-09-06 20:00:34.3440,00:18,60,0,2022-09-06 20:00:36.1630,1662465636.162931,0.6628908890410403,-0.8357974217627618,-1.5808044861714143,0.472198486328125,-0.7240142822265625,-0.825531005859375,93.83946228027344,-43.64607238769531,-81.966796875,2022-09-06 20:00:40.4990,1662465640.4989882,-1.1917476654052734,0.643897533416748,1.4879505634307861,1.0601505637168884,0.39187610149383545,-0.19543402828276157,
0,2022-09-06 20:00:34.3440,00:18,60,0,2022-09-06 20:00:36.1790,1662465636.179438,0.47233079408540146,-0.9982084366284811,-1.5914720442338357,0.3447113037109375,-0.5578765869140625,-0.8169708251953125,92.87689208984375,-43.03507995605469,-83.10891723632812,2022-09-06 20:00:40.5290,1662465640.528939,-0.9533588290214539,0.659290611743927,1.363970398902893,1.0603031516075134,0.4000854045152664,-0.21290550706908107,
0,2022-09-06 20:00:34.3440,00:18,60,0,2022-09-06 20:00:36.1790,1662465636.179438,0.47233079408540146,-0.9982084366284811,-1.5914720442338357,0.3447113037109375,-0.5578765869140625,-0.8169708251953125,92.87689208984375,-43.03507995605469,-83.10891723632812,2022-09-06 20:00:40.5590,1662465640.558817,-0.46008068323135376,0.5745392441749573,1.2387313842773438,1.089249074459076,0.43356311321258545,-0.26020774617791176,
0,2022-09-06 20:00:34.3440,00:18,60,0,2022-09-06 20:00:36.1960,1662465636.196105,0.2512383561803312,-1.102928724380359,-1.6149818977048374,0.2584991455078125,-0.3706207275390625,-0.7943115234375,91.70404052734375,-42.76710510253906,-83.59693908691406,2022-09-06 20:00:40.5890,1662465640.588955,0.15271054208278656,0.3677213191986084,1.0816724300384521,1.123016357421875,0.4428101181983948,-0.3231353424489498,
0,2022-09-06 20:00:34.3440,00:18,60,0,2022-09-06 20:00:36.1960,1662465636.196105,0.2512383561803312,-1.102928724380359,-1.6149818977048374,0.2584991455078125,-0.3706207275390625,-0.7943115234375,91.70404052734375,-42.76710510253906,-83.59693908691406,2022-09-06 20:00:40.6190,1662465640.6185632,0.39713120460510254,0.043014366179704666,0.6203712224960327,0.96136474609375,0.3359832763671875,-0.2870178744196892,
0,2022-09-06 20:00:34.3440,00:18,60,0,2022-09-06 20:00:36.2120,1662465636.211825,0.03623070873387399,-0.9165801523725714,-1.5247028672800231,0.23095703125,-0.325103759765625,-0.900146484375,90.70976257324219,-41.901336669921875,-83.90335083007812,2022-09-06 20:00:40.6480,1662465640.648454,0.5301888585090637,-0.044607628136873245,0.0013173427432775497,0.7262269854545593,0.3191527724266052,-0.19288615509867668,
0,2022-09-06 20:00:34.3440,00:18,60,0,2022-09-06 20:00:36.2120,1662465636.211825,0.03623070873387399,-0.9165801523725714,-1.5247028672800231,0.23095703125,-0.325103759765625,-0.900146484375,90.70976257324219,-41.901336669921875,-83.90335083007812,2022-09-06 20:00:40.6780,1662465640.678205,1.0782378911972046,-0.0433327741920948,-0.4352940022945404,0.7771150469779968,0.36235037446022034,-0.1839597448706627,
0,2022-09-06 20:00:34.3440,00:18,60,0,2022-09-06 20:00:36.2300,1662465636.229583,-0.01874439301641371,-0.3706062962437538,-1.3842615998269125,0.235687255859375,-0.379669189453125,-0.9143218994140625,90.70976257324219,-41.901336669921875,-83.90335083007812,2022-09-06 20:00:40.7080,1662465640.708075,1.8545928001403809,-0.30892157554626465,-0.6636785268783569,0.9577029347419739,0.39762869477272034,-0.24560512229800224,
0,2022-09-06 20:00:34.3440,00:18,60,0,2022-09-06 20:00:36.2300,1662465636.229583,-0.01874439301641371,-0.3706062962437538,-1.3842615998269125,0.235687255859375,-0.379669189453125,-0.9143218994140625,90.70976257324219,-41.901336669921875,-83.90335083007812,2022-09-06 20:00:40.7380,1662465640.737988,2.540374279022217,-0.6292508840560913,-0.8266567587852478,1.0923009514808655,0.3791807293891907,-0.24200380593538284,
0,2022-09-06 20:00:34.3440,00:18,60,0,2022-09-06 20:00:36.2460,1662465636.246139,0.033602967686292805,-0.1916357457199218,-1.2093156183424083,0.2153778076171875,-0.4165191650390625,-0.9264373779296875,90.07806396484375,-41.37635803222656,-84.04449462890625,2022-09-06 20:00:40.7680,1662465640.7678719,2.864419460296631,-1.0043895244598389,-1.0805140733718872,1.1934515237808228,0.3211820423603058,-0.18580563366413116,
0,2022-09-06 20:00:34.3440,00:18,60,0,2022-09-06 20:00:36.2460,1662465636.246139,0.033602967686292805,-0.1916357457199218,-1.2093156183424083,0.2153778076171875,-0.4165191650390625,-0.9264373779296875,90.07806396484375,-41.37635803222656,-84.04449462890625,2022-09-06 20:00:40.7980,1662465640.797816,2.5928356647491455,-1.4117707014083862,-1.4294025897979736,1.2579200267791748,0.24385054409503937,-0.11178525164723396,
0,2022-09-06 20:00:34.3440,00:18,60,0,2022-09-06 20:00:36.2630,1662465636.2627602,-0.002533997777210395,-0.3051878745948294,-0.9988284205302516,0.27142333984375,-0.4630584716796875,-0.969146728515625,89.63539123535156,-41.037567138671875,-84.2562255859375,2022-09-06 20:00:40.8280,1662465640.8275719,1.9385662078857422,-1.7042070627212524,-1.8118104934692383,1.3175362348556519,0.16697676479816437,-0.05070410668849945,
0,2022-09-06 20:00:34.3440,00:18,60,0,2022-09-06 20:00:36.2630,1662465636.2627602,-0.002533997777210395,-0.3051878745948294,-0.9988284205302516,0.27142333984375,-0.4630584716796875,-0.969146728515625,89.63539123535156,-41.037567138671875,-84.2562255859375,2022-09-06 20:00:40.8580,1662465640.8575292,1.2205235958099365,-1.9515279531478882,-2.2090237140655518,1.4135293364524841,0.11611926555633545,-0.0207816269248724,
0,2022-09-06 20:00:34.3440,00:18,60,0,2022-09-06 20:00:36.2800,1662465636.279515,-0.13774401790107835,-0.666847547472571,-0.7073507655432592,0.3112030029296875,-0.5498199462890625,-0.975921630859375,89.15292358398438,-41.03300476074219,-84.27694702148438,2022-09-06 20:00:40.8880,1662465640.8883018,0.5876332521438599,-2.1059517860412598,-2.5984342098236084,1.4621591567993164,0.1483306847512722,-0.012770764529705048,
0,2022-09-06 20:00:34.3440,00:18,60,0,2022-09-06 20:00:36.2800,1662465636.279515,-0.13774401790107835,-0.666847547472571,-0.7073507655432592,0.3112030029296875,-0.5498199462890625,-0.975921630859375,89.15292358398438,-41.03300476074219,-84.27694702148438,2022-09-06 20:00:40.9170,1662465640.9174728,0.0174962617456913,-2.1784441471099854,-2.9284636974334717,1.4664621353149414,0.13945013284683228,0.01022416353225708,
0,2022-09-06 20:00:34.3440,00:18,60,0,2022-09-06 20:00:36.2960,1662465636.29618,-0.36742461768943613,-0.6938147166707134,-0.7161149623746009,0.2893829345703125,-0.539215087890625,-0.985015869140625,88.71214294433594,-40.7333984375,-84.40077209472656,2022-09-06 20:00:40.9470,1662465640.947257,-0.4006027281284332,-2.1216018199920654,-3.1919147968292236,1.4269726276397705,0.16201800107955933,0.025986716151237488,
0,2022-09-06 20:00:34.3440,00:18,60,0,2022-09-06 20:00:36.2960,1662465636.29618,-0.36742461768943613,-0.6938147166707134,-0.7161149623746009,0.2893829345703125,-0.539215087890625,-0.985015869140625,88.71214294433594,-40.7333984375,-84.40077209472656,2022-09-06 20:00:40.9770,1662465640.977123,-0.6659941673278809,-1.9963022470474243,-3.332784414291382,1.3825085759162903,0.17123447358608246,0.040207892656326294,
0,2022-09-06 20:00:34.3440,00:18,60,0,2022-09-06 20:00:36.3120,1662465636.311912,-0.3749573688327253,-0.2976199697251512,-0.5763352241362659,0.182647705078125,-0.272308349609375,-0.88995361328125,88.42140197753906,-40.51576232910156,-83.96090698242188,2022-09-06 20:00:41.0070,1662465641.0070581,-0.8368908166885376,-1.8328830003738403,-3.3402795791625977,1.2948312759399414,0.18432649970054626,0.04248124361038208,
0,2022-09-06 20:00:34.3440,00:18,60,0,2022-09-06 20:00:36.3120,1662465636.311912,-0.3749573688327253,-0.2976199697251512,-0.5763352241362659,0.182647705078125,-0.272308349609375,-0.88995361328125,88.42140197753906,-40.51576232910156,-83.96090698242188,2022-09-06 20:00:41.0370,1662465641.036957,-0.8014523983001709,-1.6006157398223877,-3.1944518089294434,1.1758736968040466,0.20735213160514832,0.05339127779006958,
0,2022-09-06 20:00:34.3440,00:18,60,0,2022-09-06 20:00:36.3280,1662465636.3282862,-0.2836205308229317,-0.153562395827822,-0.43740050691181315,0.1992034912109375,-0.3403167724609375,-0.84344482421875,88.42140197753906,-40.51576232910156,-83.96090698242188,2022-09-06 20:00:41.0670,1662465641.0668101,-0.6157669425010681,-1.3198471069335938,-2.9498953819274902,1.051087200641632,0.21780449151992798,0.06214973330497742,
0,2022-09-06 20:00:34.3440,00:18,60,0,2022-09-06 20:00:36.3280,1662465636.3282862,-0.2836205308229317,-0.153562395827822,-0.43740050691181315,0.1992034912109375,-0.3403167724609375,-0.84344482421875,88.42140197753906,-40.51576232910156,-83.96090698242188,2022-09-06 20:00:41.0970,1662465641.0967488,-0.40011322498321533,-0.991586446762085,-2.58974027633667,0.9397284984588623,0.20813047885894775,0.07167115807533264,
0,2022-09-06 20:00:34.3440,00:18,60,0,2022-09-06 20:00:36.3460,1662465636.346414,-0.12495818150760793,-0.09828076423606619,-0.30570506047852275,0.209197998046875,-0.272247314453125,-0.9416046142578125,88.03225708007812,-39.987152099609375,-83.74246215820312,2022-09-06 20:00:41.1270,1662465641.126641,-0.1035100519657135,-0.6130378246307373,-2.1769256591796875,0.8538825511932373,0.21124333143234253,0.05806034803390503,
0,2022-09-06 20:00:34.3440,00:18,60,0,2022-09-06 20:00:36.3460,1662465636.346414,-0.12495818150760793,-0.09828076423606619,-0.30570506047852275,0.209197998046875,-0.272247314453125,-0.9416046142578125,88.03225708007812,-39.987152099609375,-83.74246215820312,2022-09-06 20:00:41.1560,1662465641.156451,0.2552366554737091,-0.3273325562477112,-1.7289104461669922,0.7808080911636353,0.20762699842453003,-0.031340956687927246,
0,2022-09-06 20:00:34.3440,00:18,60,0,2022-09-06 20:00:36.3630,1662465636.362918,0.1708271365425877,-0.004242149300387218,-0.22917566444567877,0.1763153076171875,-0.2703399658203125,-0.960601806640625,87.92649841308594,-40.12022399902344,-83.82630920410156,2022-09-06 20:00:41.1860,1662465641.18636,0.5276333093643188,-0.14681334793567657,-1.270906686782837,0.7296149730682373,0.18934708833694458,-0.09211668372154236,
0,2022-09-06 20:00:34.3440,00:18,60,0,2022-09-06 20:00:36.3630,1662465636.362918,0.1708271365425877,-0.004242149300387218,-0.22917566444567877,0.1763153076171875,-0.2703399658203125,-0.960601806640625,87.92649841308594,-40.12022399902344,-83.82630920410156,2022-09-06 20:00:41.2160,1662465641.216265,0.8742316961288452,0.0905323475599289,-0.7093260884284973,0.6901708841323853,0.1700294017791748,-0.09281861782073975,
0,2022-09-06 20:00:34.3440,00:18,60,0,2022-09-06 20:00:36.3790,1662465636.37949,0.42168359542260153,-0.2545161748500007,-0.4537802791963455,0.146514892578125,-0.29144287109375,-0.912353515625,87.27127075195312,-39.88764953613281,-83.98110961914062,2022-09-06 20:00:41.2460,1662465641.246107,1.1901683807373047,0.2428997904062271,-0.05579100549221039,0.7294927835464478,0.17846739292144775,-0.10646000504493713,
0,2022-09-06 20:00:34.3440,00:18,60,0,2022-09-06 20:00:36.3790,1662465636.37949,0.42168359542260153,-0.2545161748500007,-0.4537802791963455,0.146514892578125,-0.29144287109375,-0.912353515625,87.27127075195312,-39.88764953613281,-83.98110961914062,2022-09-06 20:00:41.2760,1662465641.2760649,0.9737274050712585,0.461480051279068,0.7294912934303284,0.7111364603042603,0.10467594861984253,-0.17175236344337463,
0,2022-09-06 20:00:34.3440,00:18,60,0,2022-09-06 20:00:36.3960,1662465636.396292,0.526594831824638,-0.6835580843644912,-0.8233109246758163,0.15478515625,-0.219818115234375,-0.9747161865234375,86.35812377929688,-39.916259765625,-84.21641540527344,2022-09-06 20:00:41.3060,1662465641.306055,0.3082370162010193,0.6625231504440308,1.5094804763793945,0.8219305276870728,0.08853214979171753,-0.16981452703475952,
0,2022-09-06 20:00:34.3440,00:18,60,0,2022-09-06 20:00:36.3960,1662465636.396292,0.526594831824638,-0.6835580843644912,-0.8233109246758163,0.15478515625,-0.219818115234375,-0.9747161865234375,86.35812377929688,-39.916259765625,-84.21641540527344,2022-09-06 20:00:41.3360,1662465641.335767,-0.4838901460170746,0.9561598300933838,2.0464768409729004,0.7482458353042603,0.09629875421524048,-0.2079767882823944,
0,2022-09-06 20:00:34.3440,00:18,60,0,2022-09-06 20:00:36.4130,1662465636.412986,0.590116816461317,-0.7821099583995275,-1.0687752812967468,0.14935302734375,-0.211883544921875,-0.9644775390625,85.14459228515625,-39.80278015136719,-84.49867248535156,2022-09-06 20:00:41.3660,1662465641.3656502,-0.962302565574646,1.204275369644165,2.453145980834961,0.8032081723213196,0.11149656772613525,-0.21673518419265747,
0,2022-09-06 20:00:34.3440,00:18,60,0,2022-09-06 20:00:36.4130,1662465636.412986,0.590116816461317,-0.7821099583995275,-1.0687752812967468,0.14935302734375,-0.211883544921875,-0.9644775390625,85.14459228515625,-39.80278015136719,-84.49867248535156,2022-09-06 20:00:41.3960,1662465641.395557,-0.794272780418396,1.2929993867874146,2.856990337371826,0.9567878246307373,0.16526848077774048,-0.20629823207855225,
0,2022-09-06 20:00:34.3440,00:18,60,0,2022-09-06 20:00:36.4300,1662465636.4296532,0.5611402922207098,-0.7253769040136785,-1.0355741846189468,0.1691131591796875,-0.3005218505859375,-0.8594970703125,85.14459228515625,-39.80278015136719,-84.49867248535156,2022-09-06 20:00:41.4260,1662465641.425871,-0.636459469795227,1.274728775024414,3.282705307006836,1.1513832211494446,0.1675114631652832,-0.18366938829421997,
0,2022-09-06 20:00:34.3440,00:18,60,0,2022-09-06 20:00:36.4300,1662465636.4296532,0.5611402922207098,-0.7253769040136785,-1.0355741846189468,0.1691131591796875,-0.3005218505859375,-0.8594970703125,85.14459228515625,-39.80278015136719,-84.49867248535156,2022-09-06 20:00:41.4550,1662465641.455319,-1.0011482238769531,1.124098539352417,3.4222748279571533,1.2650004029273987,0.15156596899032593,-0.16174238920211792,
0,2022-09-06 20:00:34.3440,00:18,60,0,2022-09-06 20:00:36.4460,1662465636.4461699,0.25145513749306364,-0.7158904578947072,-1.0416091739651754,0.1885986328125,-0.3097076416015625,-0.8635406494140625,84.40589904785156,-40.17070007324219,-84.82310485839844,2022-09-06 20:00:41.4850,1662465641.485201,-1.4515459537506104,0.9890386462211609,3.291231632232666,1.2559062242507935,0.15820348262786865,-0.11337195336818695,
0,2022-09-06 20:00:34.3440,00:18,60,0,2022-09-06 20:00:36.4460,1662465636.4461699,0.25145513749306364,-0.7158904578947072,-1.0416091739651754,0.1885986328125,-0.3097076416015625,-0.8635406494140625,84.40589904785156,-40.17070007324219,-84.82310485839844,2022-09-06 20:00:41.5150,1662465641.5152202,-1.5797063112258911,0.9477439522743225,3.0096065998077393,1.2211318016052246,0.18150362372398376,-0.0471484512090683,
0,2022-09-06 20:00:34.3440,00:18,60,0,2022-09-06 20:00:36.4630,1662465636.4628139,-0.24842738964975256,-0.4396165232548681,-0.9597113778069497,0.1759033203125,-0.29510498046875,-0.815582275390625,83.27912902832031,-39.72721862792969,-85.03724670410156,2022-09-06 20:00:41.5450,1662465641.545028,-1.4746953248977661,0.9854646921157837,2.7260007858276367,1.212709128856659,0.1732637882232666,-0.05674605071544647,
0,2022-09-06 20:00:34.3440,00:18,60,0,2022-09-06 20:00:36.4630,1662465636.4628139,-0.24842738964975256,-0.4396165232548681,-0.9597113778069497,0.1759033203125,-0.29510498046875,-0.815582275390625,83.27912902832031,-39.72721862792969,-85.03724670410156,2022-09-06 20:00:41.5750,1662465641.574877,-1.5090159177780151,0.9695166349411011,2.468463897705078,1.2711193561553955,0.19723523408174515,-0.10180561244487762,
0,2022-09-06 20:00:34.3440,00:18,60,0,2022-09-06 20:00:36.4790,1662465636.479255,-0.6401847775870247,-0.14692899418465263,-0.7561630462149944,0.160247802734375,-0.31829833984375,-0.76177978515625,82.50531005859375,-39.28370666503906,-85.17695617675781,2022-09-06 20:00:41.6050,1662465641.604681,-1.591874122619629,0.8870270848274231,2.21014404296875,1.2908490300178528,0.2465362399816513,-0.08720272779464722,
0,2022-09-06 20:00:34.3440,00:18,60,0,2022-09-06 20:00:36.4790,1662465636.479255,-0.6401847775870247,-0.14692899418465263,-0.7561630462149944,0.160247802734375,-0.31829833984375,-0.76177978515625,82.50531005859375,-39.28370666503906,-85.17695617675781,2022-09-06 20:00:41.6350,1662465641.634625,-1.7708505392074585,0.8289510011672974,1.930361032485962,1.252335786819458,0.2305755317211151,-0.01589859277009964,
0,2022-09-06 20:00:34.3440,00:18,60,0,2022-09-06 20:00:36.4960,1662465636.496235,-0.7226231954465365,-0.09604157839152756,-0.4935087837059296,0.1818084716796875,-0.369415283203125,-0.8218536376953125,82.09384155273438,-38.770751953125,-84.93008422851562,2022-09-06 20:00:41.6640,1662465641.66449,-1.8174704313278198,0.8030403256416321,1.6766419410705566,1.211472749710083,0.23071280866861343,-0.01676829531788826,
0,2022-09-06 20:00:34.3440,00:18,60,0,2022-09-06 20:00:36.4960,1662465636.496235,-0.7226231954465365,-0.09604157839152756,-0.4935087837059296,0.1818084716796875,-0.369415283203125,-0.8218536376953125,82.09384155273438,-38.770751953125,-84.93008422851562,2022-09-06 20:00:41.6940,1662465641.694412,-1.8810560703277588,0.6934749484062195,1.4122538566589355,1.2310652136802673,0.23074322938919067,-0.039045967161655426,
0,2022-09-06 20:00:34.3440,00:18,60,0,2022-09-06 20:00:36.5130,1662465636.5129719,-0.5635888025269287,-0.25322933541127446,-0.3158423831679094,0.19256591796875,-0.3901519775390625,-0.8860626220703125,81.56278991699219,-38.28562927246094,-83.84765625,2022-09-06 20:00:41.7240,1662465641.7242641,-1.8822137117385864,0.6042720675468445,1.198602318763733,1.1402297019958496,0.24012726545333862,-0.042112844064831734,
0,2022-09-06 20:00:34.3440,00:18,60,0,2022-09-06 20:00:36.5130,1662465636.5129719,-0.5635888025269287,-0.25322933541127446,-0.3158423831679094,0.19256591796875,-0.3901519775390625,-0.8860626220703125,81.56278991699219,-38.28562927246094,-83.84765625,2022-09-06 20:00:41.7540,1662465641.754147,-1.659367322921753,0.5835465788841248,1.0164861679077148,1.0732898116111755,0.25508078932762146,-0.07270630821585655,
0,2022-09-06 20:00:34.3440,00:18,60,0,2022-09-06 20:00:36.5300,1662465636.5297709,-0.39951490987656396,-0.6635284498060052,-0.31171155400108747,0.1715087890625,-0.3953094482421875,-0.94610595703125,81.56278991699219,-38.28562927246094,-83.84765625,2022-09-06 20:00:41.7840,1662465641.7840362,-1.7345577478408813,0.41241636872291565,0.826992928981781,1.0897691249847412,0.21661338210105896,-0.051923928782343864,
0,2022-09-06 20:00:34.3440,00:18,60,0,2022-09-06 20:00:36.5300,1662465636.5297709,-0.39951490987656396,-0.6635284498060052,-0.31171155400108747,0.1715087890625,-0.3953094482421875,-0.94610595703125,81.56278991699219,-38.28562927246094,-83.84765625,2022-09-06 20:00:41.8140,1662465641.813881,-1.8407121896743774,0.3593539595603943,0.6573728322982788,1.0098894834518433,0.22157242894172668,-0.04862804897129536,
0,2022-09-06 20:00:34.3440,00:18,60,0,2022-09-06 20:00:36.5460,1662465636.546303,-0.28696492851985317,-0.9620653458944708,-0.4601881110951852,0.154693603515625,-0.3798065185546875,-1.00677490234375,80.94151306152344,-37.85760498046875,-84.06117248535156,2022-09-06 20:00:41.8440,1662465641.843802,-1.8103753328323364,0.3475028872489929,0.4815501570701599,0.9904037714004517,0.23106342554092407,-0.06703036464750767,
0,2022-09-06 20:00:34.3440,00:18,60,0,2022-09-06 20:00:36.5460,1662465636.546303,-0.28696492851985317,-0.9620653458944708,-0.4601881110951852,0.154693603515625,-0.3798065185546875,-1.00677490234375,80.94151306152344,-37.85760498046875,-84.06117248535156,2022-09-06 20:00:41.8740,1662465641.873711,-1.6760754585266113,0.24654245376586914,0.2993171811103821,0.9907699227333069,0.24269062280654907,-0.0755448006093502,
0,2022-09-06 20:00:34.3440,00:18,60,0,2022-09-06 20:00:36.5630,1662465636.562841,-0.2162910247757664,-0.8855793593873951,-0.6329441752153173,0.138946533203125,-0.335052490234375,-0.95562744140625,79.96726989746094,-37.24147033691406,-84.52145385742188,2022-09-06 20:00:41.9040,1662465641.903576,-1.3877902030944824,0.2463270127773285,0.14716488122940063,0.9164749383926392,0.2616725265979767,-0.10267487168312073,
0,2022-09-06 20:00:34.3440,00:18,60,0,2022-09-06 20:00:36.5630,1662465636.562841,-0.2162910247757664,-0.8855793593873951,-0.6329441752153173,0.138946533203125,-0.335052490234375,-0.95562744140625,79.96726989746094,-37.24147033691406,-84.52145385742188,2022-09-06 20:00:41.9330,1662465641.9334888,-1.1563571691513062,0.2691958248615265,-0.008679790422320366,0.9145371913909912,0.2515558898448944,-0.10120974108576775,
0,2022-09-06 20:00:34.3440,00:18,60,0,2022-09-06 20:00:36.5790,1662465636.579455,-0.16917677561506558,-0.7570994136542664,-0.7447396830352085,0.123992919921875,-0.342803955078125,-0.8995513916015625,78.89346313476562,-37.246795654296875,-84.79801940917969,2022-09-06 20:00:41.9630,1662465641.963087,-0.9007267951965332,0.28476786613464355,-0.09024421125650406,0.9613816142082214,0.2621608078479767,-0.11341699957847595,
0,2022-09-06 20:00:34.3440,00:18,60,0,2022-09-06 20:00:36.5790,1662465636.579455,-0.16917677561506558,-0.7570994136542664,-0.7447396830352085,0.123992919921875,-0.342803955078125,-0.8995513916015625,78.89346313476562,-37.246795654296875,-84.79801940917969,2022-09-06 20:00:41.9930,1662465641.99325,-0.5396593809127808,0.31419631838798523,-0.0836460217833519,1.0215318202972412,0.2926631271839142,-0.14105058461427689,
0,2022-09-06 20:00:34.3440,00:18,60,0,2022-09-06 20:00:36.5960,1662465636.5963778,-0.3107099391151087,-0.6470064647192627,-0.8635398371542263,0.0948486328125,-0.353363037109375,-0.8782196044921875,78.03062438964844,-36.68499755859375,-84.82276916503906,2022-09-06 20:00:42.0230,1662465642.023135,-0.21684354543685913,0.0855112224817276,-0.17286363244056702,1.0726948380470276,0.302794873714447,-0.19000044278800488,
0,2022-09-06 20:00:34.3440,00:18,60,0,2022-09-06 20:00:36.5960,1662465636.5963778,-0.3107099391151087,-0.6470064647192627,-0.8635398371542263,0.0948486328125,-0.353363037109375,-0.8782196044921875,78.03062438964844,-36.68499755859375,-84.82276916503906,2022-09-06 20:00:42.0530,1662465642.05303,-0.07850270718336105,-0.0004867732059210539,-0.5622649192810059,0.8820212483406067,0.27429136633872986,-0.21656576357781887,
0,2022-09-06 20:00:34.3440,00:18,60,0,2022-09-06 20:00:36.6130,1662465636.613008,-0.5678381423622592,-0.3965188536502248,-0.956093739782186,0.0817413330078125,-0.3484954833984375,-0.8503875732421875,77.26760864257812,-36.44865417480469,-84.41368103027344,2022-09-06 20:00:42.0830,1662465642.0830278,0.06348718702793121,0.043966978788375854,-1.0939514636993408,0.8596062660217285,0.21963447332382202,-0.1749855037778616,
0,2022-09-06 20:00:34.3440,00:18,60,0,2022-09-06 20:00:36.6130,1662465636.613008,-0.5678381423622592,-0.3965188536502248,-0.956093739782186,0.0817413330078125,-0.3484954833984375,-0.8503875732421875,77.26760864257812,-36.44865417480469,-84.41368103027344,2022-09-06 20:00:42.1130,1662465642.1127849,0.4952559173107147,0.05841808766126633,-1.4965428113937378,0.9904657006263733,0.2149806022644043,-0.15783442556858063,
0,2022-09-06 20:00:34.3440,00:18,60,0,2022-09-06 20:00:36.6300,1662465636.62961,-0.747377277778823,-0.026184466153768078,-0.9231629539550292,0.0879058837890625,-0.3321990966796875,-0.818511962890625,77.26760864257812,-36.44865417480469,-84.41368103027344,2022-09-06 20:00:42.1430,1662465642.142669,1.373274803161621,-0.1293981522321701,-1.6884015798568726,1.2868983149528503,0.30773891508579254,-0.2291539516299963,
0,2022-09-06 20:00:34.3440,00:18,60,0,2022-09-06 20:00:36.6300,1662465636.62961,-0.747377277778823,-0.026184466153768078,-0.9231629539550292,0.0879058837890625,-0.3321990966796875,-0.818511962890625,77.26760864257812,-36.44865417480469,-84.41368103027344,2022-09-06 20:00:42.1730,1662465642.172534,1.459967851638794,-0.5142971277236938,-1.8859288692474365,1.3528010249137878,0.17895479500293732,-0.179486570879817,
0,2022-09-06 20:00:34.3440,00:18,60,0,2022-09-06 20:00:36.6460,1662465636.646178,-0.7607460801349119,0.23071204207854548,-0.776211056585002,0.109619140625,-0.3468780517578125,-0.8426361083984375,76.88331604003906,-35.636260986328125,-83.94744873046875,2022-09-06 20:00:42.2020,1662465642.202444,1.5632004737854004,-0.6736710667610168,-2.214510440826416,1.320177674293518,0.1438293196260929,-0.21569588035345078,
0,2022-09-06 20:00:34.3440,00:18,60,0,2022-09-06 20:00:36.6460,1662465636.646178,-0.7607460801349119,0.23071204207854548,-0.776211056585002,0.109619140625,-0.3468780517578125,-0.8426361083984375,76.88331604003906,-35.636260986328125,-83.94744873046875,2022-09-06 20:00:42.2320,1662465642.2321339,1.300223708152771,-1.1123136281967163,-2.704892635345459,1.443254828453064,0.04672246798872948,-0.20425201952457428,
0,2022-09-06 20:00:34.3440,00:18,60,0,2022-09-06 20:00:36.6630,1662465636.6626968,-0.688122476156778,0.1969554099973551,-0.6579022556871038,0.1151275634765625,-0.351104736328125,-0.901397705078125,76.64208984375,-34.98182678222656,-84.10929870605469,2022-09-06 20:00:42.2620,1662465642.262244,0.6483713984489441,-1.3151479959487915,-3.1149990558624268,1.3298515677452087,0.004059113562107086,-0.14770296216011047,
0,2022-09-06 20:00:34.3440,00:18,60,0,2022-09-06 20:00:36.6630,1662465636.6626968,-0.688122476156778,0.1969554099973551,-0.6579022556871038,0.1151275634765625,-0.351104736328125,-0.901397705078125,76.64208984375,-34.98182678222656,-84.10929870605469,2022-09-06 20:00:42.2920,1662465642.292099,0.5588071942329407,-1.4366039037704468,-3.278815746307373,1.3841116428375244,0.0367894172668457,-0.1891613006591797,
0,2022-09-06 20:00:34.3440,00:18,60,0,2022-09-06 20:00:36.6800,1662465636.679507,-0.6063620991108004,0.029903570616063736,-0.6242066099948763,0.113677978515625,-0.32684326171875,-0.94915771484375,76.282958984375,-34.912872314453125,-83.83251953125,2022-09-06 20:00:42.3220,1662465642.3219972,0.421530544757843,-1.758874773979187,-3.3219218254089355,1.463625192642212,0.038544416427612305,-0.22433286905288696,
0,2022-09-06 20:00:34.3440,00:18,60,0,2022-09-06 20:00:36.6800,1662465636.679507,-0.6063620991108004,0.029903570616063736,-0.6242066099948763,0.113677978515625,-0.32684326171875,-0.94915771484375,76.282958984375,-34.912872314453125,-83.83251953125,2022-09-06 20:00:42.3520,1662465642.3518639,0.1027403175830841,-2.001551628112793,-3.1733739376068115,1.3654803037643433,0.08088764548301697,-0.16119235754013062,
0,2022-09-06 20:00:34.3440,00:18,60,0,2022-09-06 20:00:36.6960,1662465636.696039,-0.5210868820581361,-0.15545696862730438,-0.6575246194445307,0.0900115966796875,-0.29742431640625,-0.9612884521484375,75.76815795898438,-34.00172424316406,-83.727783203125,2022-09-06 20:00:42.3820,1662465642.3819718,-0.18248103559017181,-2.0122504234313965,-2.848443031311035,1.1793078780174255,0.07748520374298096,-0.14045557379722595,
0,2022-09-06 20:00:34.3440,00:18,60,0,2022-09-06 20:00:36.6960,1662465636.696039,-0.5210868820581361,-0.15545696862730438,-0.6575246194445307,0.0900115966796875,-0.29742431640625,-0.9612884521484375,75.76815795898438,-34.00172424316406,-83.727783203125,2022-09-06 20:00:42.4120,1662465642.411611,-0.17840026319026947,-2.1493544578552246,-2.403341770172119,1.1432206630706787,0.1263744831085205,-0.27061325311660767,
0,2022-09-06 20:00:34.3440,00:18,60,0,2022-09-06 20:00:36.7130,1662465636.7129688,-0.44240645081283514,-0.26670253368209434,-0.6957367200294235,0.0792083740234375,-0.279449462890625,-0.977020263671875,75.1636962890625,-33.45021057128906,-83.4774169921875,2022-09-06 20:00:42.4420,1662465642.441599,-0.8441713452339172,-2.2837064266204834,-1.954616665840149,1.0905473828315735,0.10308980941772461,-0.2651810348033905,
0,2022-09-06 20:00:34.3440,00:18,60,0,2022-09-06 20:00:36.7130,1662465636.7129688,-0.44240645081283514,-0.26670253368209434,-0.6957367200294235,0.0792083740234375,-0.279449462890625,-0.977020263671875,75.1636962890625,-33.45021057128906,-83.4774169921875,2022-09-06 20:00:42.4710,1662465642.4714599,-1.6773834228515625,-2.2093822956085205,-1.5996617078781128,0.9941726326942444,0.13850551843643188,-0.19184741377830505,
0,2022-09-06 20:00:34.3440,00:18,60,0,2022-09-06 20:00:36.7290,1662465636.729394,-0.36698732663844513,-0.3363487235615195,-0.7220066736541831,0.061431884765625,-0.2908172607421875,-0.9712982177734375,75.1636962890625,-33.45021057128906,-83.4774169921875,2022-09-06 20:00:42.5010,1662465642.501245,-1.9499585628509521,-2.0931236743927,-1.311489462852478,0.9246229529380798,0.18318337202072144,-0.24845749139785767,
0,2022-09-06 20:00:34.3440,00:18,60,0,2022-09-06 20:00:36.7290,1662465636.729394,-0.36698732663844513,-0.3363487235615195,-0.7220066736541831,0.061431884765625,-0.2908172607421875,-0.9712982177734375,75.1636962890625,-33.45021057128906,-83.4774169921875,2022-09-06 20:00:42.5310,1662465642.531132,-1.8442951440811157,-2.0318450927734375,-1.0663747787475586,0.887894868850708,0.22560280561447144,-0.26840072870254517,
0,2022-09-06 20:00:34.3440,00:18,60,0,2022-09-06 20:00:36.7460,1662465636.745965,-0.23969887917701788,-0.3293288972441797,-0.7316209515054782,0.04638671875,-0.3165740966796875,-0.9808349609375,74.68998718261719,-33.43574523925781,-82.76278686523438,2022-09-06 20:00:42.5610,1662465642.5611,-1.4035640954971313,-1.991234540939331,-0.7481241226196289,0.8302775919437408,0.2654893398284912,-0.23216113448143005,
0,2022-09-06 20:00:34.3440,00:18,60,0,2022-09-06 20:00:36.7460,1662465636.745965,-0.23969887917701788,-0.3293288972441797,-0.7316209515054782,0.04638671875,-0.3165740966796875,-0.9808349609375,74.68998718261719,-33.43574523925781,-82.76278686523438,2022-09-06 20:00:42.5910,1662465642.5909429,-0.9788679480552673,-1.9265152215957642,-0.35698017477989197,0.7659006714820862,0.257188618183136,-0.21313345432281494,
0,2022-09-06 20:00:34.3440,00:18,60,0,2022-09-06 20:00:36.7630,1662465636.7628632,-0.09162445940752215,-0.33584112505775043,-0.7369422136795656,0.02020263671875,-0.318084716796875,-0.995819091796875,74.06092834472656,-33.08857727050781,-82.73263549804688,2022-09-06 20:00:42.6210,1662465642.620817,-0.6512469053268433,-1.8250322341918945,0.09529773890972137,0.7126779556274414,0.23959529399871826,-0.20866262912750244,
